ori_st,ori_pr,xpos_st,xpos_pr,size,trials_3.thisRepN,trials_3.thisTrialN,trials_3.thisN,trials_3.thisIndex,trials_2.thisRepN,trials_2.thisTrialN,trials_2.thisN,trials_2.thisIndex,trials.thisRepN,trials.thisTrialN,trials.thisN,trials.thisIndex,wel_pra.started,wel_pra.stopped,resp_wel.keys,resp_wel.rt,resp_wel.started,resp_wel.stopped,standard_pra.started,standard_pra.stopped,prove_pra.started,prove_pra.stopped,fixation.started,fixation.stopped,resp_pra.keys,resp_pra.rt,resp_pra.started,resp_pra.stopped,instr.started,instr.stopped,key_resp_2.keys,key_resp_2.rt,key_resp_2.started,key_resp_2.stopped,standard.started,standard.stopped,probe.started,probe.stopped,text.started,text.stopped,resp.keys,resp.rt,resp.started,resp.stopped,text_2.started,text_2.stopped,key_resp.keys,key_resp.rt,key_resp.started,key_resp.stopped,participant,session,date,expName,psychopyVersion,frameRate,
,,,,,,,,,,,,,,,,,11.932335199904628,None,space,65.036650099908,11.932335199904628,None,,,,,,,,,,,,,,,,,,,,,,,,,,,,,,,,,d,001,2021_Jul_01_1343,toilet,2021.1.3,99.88642910256412,
180,0,-4,4,1.15,0,0,0,14,,,,,,,,,,,,,,,77.99695109995082,None,77.99695109995082,None,77.49661959998775,None,j,0.8599356999620795,77.99695109995082,None,,,,,,,,,,,,,,,,,,,,,,,d,001,2021_Jul_01_1343,toilet,2021.1.3,99.88642910256412,
0,0,4,-4,0.85,0,1,1,1,,,,,,,,,,,,,,,79.858212799998,None,79.858212799998,None,79.35787690000143,None,j,0.5187166000250727,79.858212799998,None,,,,,,,,,,,,,,,,,,,,,,,d,001,2021_Jul_01_1343,toilet,2021.1.3,99.88642910256412,
0,180,-4,4,1.15,0,2,2,6,,,,,,,,,,,,,,,81.38925080001354,None,81.38925080001354,None,80.88901159993839,None,j,0.49169749999418855,81.38925080001354,None,,,,,,,,,,,,,,,,,,,,,,,d,001,2021_Jul_01_1343,toilet,2021.1.3,99.88642910256412,
180,0,-4,4,1.15,0,3,3,15,,,,,,,,,,,,,,,82.88034159992822,None,82.88034159992822,None,82.37999429996125,None,j,0.5364914999809116,82.88034159992822,None,,,,,,,,,,,,,,,,,,,,,,,d,001,2021_Jul_01_1343,toilet,2021.1.3,99.88642910256412,
180,0,-4,4,0.85,0,4,4,12,,,,,,,,,,,,,,,84.42130990000442,None,84.42130990000442,None,83.920970999985,None,f,0.40373620006721467,84.42130990000442,None,,,,,,,,,,,,,,,,,,,,,,,d,001,2021_Jul_01_1343,toilet,2021.1.3,99.88642910256412,
180,180,-4,4,0.85,0,5,5,9,,,,,,,,,,,,,,,85.83226339996327,None,85.83226339996327,None,85.33192159992177,None,f,0.4807542999042198,85.83226339996327,None,,,,,,,,,,,,,,,,,,,,,,,d,001,2021_Jul_01_1343,toilet,2021.1.3,99.88642910256412,
180,180,-4,4,1.15,0,6,6,10,,,,,,,,,,,,,,,87.3132670999039,None,87.3132670999039,None,86.81293209991418,None,j,0.39174720004666597,87.3132670999039,None,,,,,,,,,,,,,,,,,,,,,,,d,001,2021_Jul_01_1343,toilet,2021.1.3,99.88642910256412,
180,0,-4,4,0.85,0,7,7,13,,,,,,,,,,,,,,,88.71421649993863,None,88.71421649993863,None,88.21387689991388,None,f,0.39881789998617023,88.71421649993863,None,,,,,,,,,,,,,,,,,,,,,,,d,001,2021_Jul_01_1343,toilet,2021.1.3,99.88642910256412,
180,180,-4,4,0.85,0,8,8,8,,,,,,,,,,,,,,,90.12520809995476,None,90.12520809995476,None,89.62491000001319,None,f,0.42768009996507317,90.12520809995476,None,,,,,,,,,,,,,,,,,,,,,,,d,001,2021_Jul_01_1343,toilet,2021.1.3,99.88642910256412,
0,0,4,-4,1.15,0,9,9,3,,,,,,,,,,,,,,,91.56615239998791,None,91.56615239998791,None,91.06580889993347,None,f,0.5227913000853732,91.56615239998791,None,,,,,,,,,,,,,,,,,,,,,,,d,001,2021_Jul_01_1343,toilet,2021.1.3,99.88642910256412,
0,0,-4,4,0.85,0,10,10,0,,,,,,,,,,,,,,,93.09718929999508,None,93.09718929999508,None,92.59684709995054,None,f,0.5436987000284716,93.09718929999508,None,,,,,,,,,,,,,,,,,,,,,,,d,001,2021_Jul_01_1343,toilet,2021.1.3,99.88642910256412,
0,180,4,-4,0.85,0,11,11,5,,,,,,,,,,,,,,,94.65824879996944,None,94.65824879996944,None,94.15790759993251,None,j,0.4385780000593513,94.65824879996944,None,,,,,,,,,,,,,,,,,,,,,,,d,001,2021_Jul_01_1343,toilet,2021.1.3,99.88642910256412,
0,180,4,-4,1.15,0,12,12,7,,,,,,,,,,,,,,,96.09922579990234,None,96.09922579990234,None,95.59897369996179,None,f,0.4857668000040576,96.09922579990234,None,,,,,,,,,,,,,,,,,,,,,,,d,001,2021_Jul_01_1343,toilet,2021.1.3,99.88642910256412,
0,0,-4,4,1.15,0,13,13,2,,,,,,,,,,,,,,,97.60021910001524,None,97.60021910001524,None,97.09993529994972,None,j,0.44058339996263385,97.60021910001524,None,,,,,,,,,,,,,,,,,,,,,,,d,001,2021_Jul_01_1343,toilet,2021.1.3,99.88642910256412,
180,180,-4,4,1.15,0,14,14,11,,,,,,,,,,,,,,,99.04121629998554,None,99.04121629998554,None,98.54087859997526,None,j,0.4076511000748724,99.04121629998554,None,,,,,,,,,,,,,,,,,,,,,,,d,001,2021_Jul_01_1343,toilet,2021.1.3,99.88642910256412,
0,180,-4,4,0.85,0,15,15,4,,,,,,,,,,,,,,,100.45216719992459,None,100.45216719992459,None,99.95183479995467,None,f,0.4048309000208974,100.45216719992459,None,,,,,,,,,,,,,,,,,,,,,,,d,001,2021_Jul_01_1343,toilet,2021.1.3,99.88642910256412,
0,180,4,-4,0.85,,,,,0,0,0,0,0,0,0,21,,,,,,,,,,,,,,,,,100.8925220000092,None,space,42.828282499918714,100.8925220000092,None,144.73218289995566,None,144.73218289995566,None,144.23183489998337,None,j,0.5727383999619633,144.73218289995566,None,,,,,,,d,001,2021_Jul_01_1343,toilet,2021.1.3,99.88642910256412,
180,180,4,-4,1.15,,,,,0,0,0,0,0,1,1,41,,,,,,,,,,,,,,,,,,,,,,,146.33326499990653,None,146.33326499990653,None,145.83292369998526,None,f,0.3955438999691978,146.33326499990653,None,,,,,,,d,001,2021_Jul_01_1343,toilet,2021.1.3,99.88642910256412,
180,180,-4,4,1.0,,,,,0,0,0,0,0,2,2,31,,,,,,,,,,,,,,,,,,,,,,,147.73430919996463,None,147.73430919996463,None,147.23387260001618,None,f,0.86646439996548,147.73430919996463,None,,,,,,,d,001,2021_Jul_01_1343,toilet,2021.1.3,99.88642910256412,
0,180,4,-4,1.15,,,,,0,0,0,0,0,3,3,27,,,,,,,,,,,,,,,,,,,,,,,149.60547989991028,None,149.60547989991028,None,149.1051610999275,None,f,0.5152957000536844,149.60547989991028,None,,,,,,,d,001,2021_Jul_01_1343,toilet,2021.1.3,99.88642910256412,
180,0,-4,4,1.06,,,,,0,0,0,0,0,4,4,47,,,,,,,,,,,,,,,,,,,,,,,151.1264935999643,None,151.1264935999643,None,150.62617059994955,None,j,0.7704483000561595,151.1264935999643,None,,,,,,,d,001,2021_Jul_01_1343,toilet,2021.1.3,99.88642910256412,
180,180,4,-4,0.85,,,,,0,0,0,0,0,5,5,35,,,,,,,,,,,,,,,,,,,,,,,152.90771910001058,None,152.90771910001058,None,152.4073814000003,None,j,0.44522989995311946,152.90771910001058,None,,,,,,,d,001,2021_Jul_01_1343,toilet,2021.1.3,99.88642910256412,
180,180,4,-4,1.03,,,,,0,0,0,0,0,6,6,39,,,,,,,,,,,,,,,,,,,,,,,154.3687087999424,None,154.3687087999424,None,153.86836709990166,None,f,0.5522068999707699,154.3687087999424,None,,,,,,,d,001,2021_Jul_01_1343,toilet,2021.1.3,99.88642910256412,
180,0,-4,4,0.85,,,,,0,0,0,0,0,7,7,42,,,,,,,,,,,,,,,,,,,,,,,155.92983899998944,None,155.92983899998944,None,155.4294310999103,None,f,1.1510570999234915,155.92983899998944,None,,,,,,,d,001,2021_Jul_01_1343,toilet,2021.1.3,99.88642910256412,
180,0,-4,4,0.97,,,,,0,0,0,0,0,8,8,44,,,,,,,,,,,,,,,,,,,,,,,158.0822606999427,None,158.0822606999427,None,157.58088279992808,None,f,1.7186533000785857,158.0822606999427,None,,,,,,,d,001,2021_Jul_01_1343,toilet,2021.1.3,99.88642910256412,
180,0,4,-4,1.06,,,,,0,0,0,0,0,9,9,54,,,,,,,,,,,,,,,,,,,,,,,160.80306479998399,None,160.80306479998399,None,160.312734899926,None,f,0.6618547000689432,160.80306479998399,None,,,,,,,d,001,2021_Jul_01_1343,toilet,2021.1.3,99.88642910256412,
0,180,4,-4,1.03,,,,,0,0,0,0,0,10,10,25,,,,,,,,,,,,,,,,,,,,,,,162.46429359994363,None,162.46429359994363,None,161.96386479993816,None,f,2.8726366000482813,162.46429359994363,None,,,,,,,d,001,2021_Jul_01_1343,toilet,2021.1.3,99.88642910256412,
180,0,4,-4,0.85,,,,,0,0,0,0,0,11,11,49,,,,,,,,,,,,,,,,,,,,,,,166.3368168999441,None,166.3368168999441,None,165.8364763999125,None,j,0.6161125999642536,166.3368168999441,None,,,,,,,d,001,2021_Jul_01_1343,toilet,2021.1.3,99.88642910256412,
0,180,-4,4,1.03,,,,,0,0,0,0,0,12,12,18,,,,,,,,,,,,,,,,,,,,,,,167.97792989993468,None,167.97792989993468,None,167.4775913999183,None,j,2.0630196999991313,167.97792989993468,None,,,,,,,d,001,2021_Jul_01_1343,toilet,2021.1.3,99.88642910256412,
180,0,4,-4,1.0,,,,,0,0,0,0,0,13,13,52,,,,,,,,,,,,,,,,,,,,,,,171.0500541999936,None,171.0500541999936,None,170.5497636999935,None,j,2.33474279998336,171.0500541999936,None,,,,,,,d,001,2021_Jul_01_1343,toilet,2021.1.3,99.88642910256412,
0,180,-4,4,0.97,,,,,0,0,0,0,0,14,14,16,,,,,,,,,,,,,,,,,,,,,,,174.3922792999074,None,174.3922792999074,None,173.891947099939,None,f,0.5125596999423578,174.3922792999074,None,,,,,,,d,001,2021_Jul_01_1343,toilet,2021.1.3,99.88642910256412,
180,180,4,-4,0.97,,,,,0,0,0,0,0,15,15,37,,,,,,,,,,,,,,,,,,,,,,,175.93332329997793,None,175.93332329997793,None,175.43298059992958,None,j,0.747584700002335,175.93332329997793,None,,,,,,,d,001,2021_Jul_01_1343,toilet,2021.1.3,99.88642910256412,
0,0,-4,4,1.06,,,,,0,0,0,0,0,16,16,5,,,,,,,,,,,,,,,,,,,,,,,177.70460199995432,None,177.70460199995432,None,177.20418000000063,None,j,0.8963316000299528,177.70460199995432,None,,,,,,,d,001,2021_Jul_01_1343,toilet,2021.1.3,99.88642910256412,
0,180,4,-4,0.97,,,,,0,0,0,0,0,17,17,23,,,,,,,,,,,,,,,,,,,,,,,179.61582539998926,None,179.61582539998926,None,179.11547690001316,None,j,1.3369309999980032,179.61582539998926,None,,,,,,,d,001,2021_Jul_01_1343,toilet,2021.1.3,99.88642910256412,
0,0,-4,4,0.97,,,,,0,0,0,0,0,18,18,2,,,,,,,,,,,,,,,,,,,,,,,181.95740579999983,None,181.95740579999983,None,181.45706809998956,None,f,1.68338040006347,181.95740579999983,None,,,,,,,d,001,2021_Jul_01_1343,toilet,2021.1.3,99.88642910256412,
0,0,-4,4,0.94,,,,,0,0,0,0,0,19,19,1,,,,,,,,,,,,,,,,,,,,,,,184.64930329995696,None,184.64930329995696,None,184.1488907999592,None,f,0.6714809000259265,184.64930329995696,None,,,,,,,d,001,2021_Jul_01_1343,toilet,2021.1.3,99.88642910256412,
0,180,-4,4,1.15,,,,,0,0,0,0,0,20,20,20,,,,,,,,,,,,,,,,,,,,,,,186.32036049989983,None,186.32036049989983,None,185.82011049997527,None,j,0.3605494999792427,186.32036049989983,None,,,,,,,d,001,2021_Jul_01_1343,toilet,2021.1.3,99.88642910256412,
180,0,-4,4,1.03,,,,,0,0,0,0,0,21,21,46,,,,,,,,,,,,,,,,,,,,,,,187.68128369993065,None,187.68128369993065,None,187.18094399990514,None,j,1.1115464000031352,187.68128369993065,None,,,,,,,d,001,2021_Jul_01_1343,toilet,2021.1.3,99.88642910256412,
0,180,-4,4,1.06,,,,,0,0,0,0,0,22,22,19,,,,,,,,,,,,,,,,,,,,,,,189.7927151999902,None,189.7927151999902,None,189.29237849998754,None,j,1.544292200007476,189.7927151999902,None,,,,,,,d,001,2021_Jul_01_1343,toilet,2021.1.3,99.88642910256412,
0,180,-4,4,0.94,,,,,0,0,0,0,0,23,23,15,,,,,,,,,,,,,,,,,,,,,,,192.3644537999062,None,192.3644537999062,None,191.86419799993746,None,f,1.9483338999561965,192.3644537999062,None,,,,,,,d,001,2021_Jul_01_1343,toilet,2021.1.3,99.88642910256412,
180,0,-4,4,1.0,,,,,0,0,0,0,0,24,24,45,,,,,,,,,,,,,,,,,,,,,,,195.31645809998736,None,195.31645809998736,None,194.81612470000982,None,j,1.6684582000598311,195.31645809998736,None,,,,,,,d,001,2021_Jul_01_1343,toilet,2021.1.3,99.88642910256412,
180,0,4,-4,1.15,,,,,0,0,0,0,0,25,25,55,,,,,,,,,,,,,,,,,,,,,,,197.99827280000318,None,197.99827280000318,None,197.49793859990314,None,f,0.7304583999793977,197.99827280000318,None,,,,,,,d,001,2021_Jul_01_1343,toilet,2021.1.3,99.88642910256412,
0,0,4,-4,1.15,,,,,0,0,0,0,0,26,26,13,,,,,,,,,,,,,,,,,,,,,,,199.72952689998783,None,199.72952689998783,None,199.2291064999299,None,f,0.7113396999193355,199.72952689998783,None,,,,,,,d,001,2021_Jul_01_1343,toilet,2021.1.3,99.88642910256412,
180,0,-4,4,0.94,,,,,0,0,0,0,0,27,27,43,,,,,,,,,,,,,,,,,,,,,,,201.45061259996146,None,201.45061259996146,None,200.95027359994128,None,f,1.7422140999697149,201.45061259996146,None,,,,,,,d,001,2021_Jul_01_1343,toilet,2021.1.3,99.88642910256412,
0,0,4,-4,0.94,,,,,0,0,0,0,0,28,28,8,,,,,,,,,,,,,,,,,,,,,,,204.19247559993528,None,204.19247559993528,None,203.69213450001553,None,j,0.584404099965468,204.19247559993528,None,,,,,,,d,001,2021_Jul_01_1343,toilet,2021.1.3,99.88642910256412,
0,0,4,-4,1.03,,,,,0,0,0,0,0,29,29,11,,,,,,,,,,,,,,,,,,,,,,,205.7935557999881,None,205.7935557999881,None,205.2932152999565,None,f,0.6632370000006631,205.7935557999881,None,,,,,,,d,001,2021_Jul_01_1343,toilet,2021.1.3,99.88642910256412,
180,0,4,-4,0.94,,,,,0,0,0,0,0,30,30,50,,,,,,,,,,,,,,,,,,,,,,,207.46478349994868,None,207.46478349994868,None,206.96443239995278,None,j,0.9760939000407234,207.46478349994868,None,,,,,,,d,001,2021_Jul_01_1343,toilet,2021.1.3,99.88642910256412,
0,180,4,-4,1.0,,,,,0,0,0,0,0,31,31,24,,,,,,,,,,,,,,,,,,,,,,,209.44603919994552,None,209.44603919994552,None,208.94570219994057,None,j,2.258925099973567,209.44603919994552,None,,,,,,,d,001,2021_Jul_01_1343,toilet,2021.1.3,99.88642910256412,
180,180,4,-4,0.94,,,,,0,0,0,0,0,32,32,36,,,,,,,,,,,,,,,,,,,,,,,212.71824789990205,None,212.71824789990205,None,212.21790649998002,None,j,0.5546863999916241,212.71824789990205,None,,,,,,,d,001,2021_Jul_01_1343,toilet,2021.1.3,99.88642910256412,
180,180,-4,4,1.03,,,,,0,0,0,0,0,33,33,32,,,,,,,,,,,,,,,,,,,,,,,214.27940050000325,None,214.27940050000325,None,213.78897729993332,None,j,2.321300100069493,214.27940050000325,None,,,,,,,d,001,2021_Jul_01_1343,toilet,2021.1.3,99.88642910256412,
0,0,-4,4,1.03,,,,,0,0,0,0,0,34,34,4,,,,,,,,,,,,,,,,,,,,,,,217.60155699995812,None,217.60155699995812,None,217.10122089996003,None,j,1.1753017998998985,217.60155699995812,None,,,,,,,d,001,2021_Jul_01_1343,toilet,2021.1.3,99.88642910256412,
0,180,-4,4,1.0,,,,,0,0,0,0,0,35,35,17,,,,,,,,,,,,,,,,,,,,,,,219.80305019998923,None,219.80305019998923,None,219.3027123999782,None,f,0.7979392000706866,219.80305019998923,None,,,,,,,d,001,2021_Jul_01_1343,toilet,2021.1.3,99.88642910256412,
0,0,-4,4,0.85,,,,,0,0,0,0,0,36,36,0,,,,,,,,,,,,,,,,,,,,,,,221.61427779996302,None,221.61427779996302,None,221.11394569999538,None,f,0.5705202999524772,221.61427779996302,None,,,,,,,d,001,2021_Jul_01_1343,toilet,2021.1.3,99.88642910256412,
0,0,4,-4,1.0,,,,,0,0,0,0,0,37,37,10,,,,,,,,,,,,,,,,,,,,,,,223.19534699991345,None,223.19534699991345,None,222.6951046999311,None,j,1.5013631000183523,223.19534699991345,None,,,,,,,d,001,2021_Jul_01_1343,toilet,2021.1.3,99.88642910256412,
0,180,4,-4,1.06,,,,,0,0,0,0,0,38,38,26,,,,,,,,,,,,,,,,,,,,,,,225.69704090000596,None,225.69704090000596,None,225.19670059997588,None,f,0.6957660999614745,225.69704090000596,None,,,,,,,d,001,2021_Jul_01_1343,toilet,2021.1.3,99.88642910256412,
180,180,-4,4,0.97,,,,,0,0,0,0,0,39,39,30,,,,,,,,,,,,,,,,,,,,,,,227.4082007999532,None,227.4082007999532,None,226.90786399994977,None,f,0.6805929999100044,227.4082007999532,None,,,,,,,d,001,2021_Jul_01_1343,toilet,2021.1.3,99.88642910256412,
0,0,4,-4,0.85,,,,,0,0,0,0,0,40,40,7,,,,,,,,,,,,,,,,,,,,,,,229.09938259993214,None,229.09938259993214,None,228.59903609997127,None,j,0.5573823000304401,229.09938259993214,None,,,,,,,d,001,2021_Jul_01_1343,toilet,2021.1.3,99.88642910256412,
0,180,4,-4,0.94,,,,,0,0,0,0,0,41,41,22,,,,,,,,,,,,,,,,,,,,,,,230.66041169990785,None,230.66041169990785,None,230.1601595999673,None,j,1.4443521000212058,230.66041169990785,None,,,,,,,d,001,2021_Jul_01_1343,toilet,2021.1.3,99.88642910256412,
180,180,4,-4,1.0,,,,,0,0,0,0,0,42,42,38,,,,,,,,,,,,,,,,,,,,,,,233.11206489999313,None,233.11206489999313,None,232.6117391999578,None,f,0.9606713000684977,233.11206489999313,None,,,,,,,d,001,2021_Jul_01_1343,toilet,2021.1.3,99.88642910256412,
0,0,-4,4,1.15,,,,,0,0,0,0,0,43,43,6,,,,,,,,,,,,,,,,,,,,,,,235.08340489992406,None,235.08340489992406,None,234.58306549990084,None,j,0.4935870999470353,235.08340489992406,None,,,,,,,d,001,2021_Jul_01_1343,toilet,2021.1.3,99.88642910256412,
180,180,4,-4,1.06,,,,,0,0,0,0,0,44,44,40,,,,,,,,,,,,,,,,,,,,,,,236.59446619998198,None,236.59446619998198,None,236.094168099924,None,f,0.47022809996269643,236.59446619998198,None,,,,,,,d,001,2021_Jul_01_1343,toilet,2021.1.3,99.88642910256412,
0,0,4,-4,1.06,,,,,0,0,0,0,0,45,45,12,,,,,,,,,,,,,,,,,,,,,,,238.07543159998022,None,238.07543159998022,None,237.57512569997925,None,f,0.49325030006002635,238.07543159998022,None,,,,,,,d,001,2021_Jul_01_1343,toilet,2021.1.3,99.88642910256412,
180,0,4,-4,1.03,,,,,0,0,0,0,0,46,46,53,,,,,,,,,,,,,,,,,,,,,,,239.57645479997154,None,239.57645479997154,None,239.07610710000154,None,f,0.960195800056681,239.57645479997154,None,,,,,,,d,001,2021_Jul_01_1343,toilet,2021.1.3,99.88642910256412,
180,0,-4,4,1.15,,,,,0,0,0,0,0,47,47,48,,,,,,,,,,,,,,,,,,,,,,,241.53777860000264,None,241.53777860000264,None,241.0374399999855,None,j,0.43904760002624243,241.53777860000264,None,,,,,,,d,001,2021_Jul_01_1343,toilet,2021.1.3,99.88642910256412,
0,0,-4,4,1.0,,,,,0,0,0,0,0,48,48,3,,,,,,,,,,,,,,,,,,,,,,,242.98876149998978,None,242.98876149998978,None,242.48842309997417,None,f,0.4281202000565827,242.98876149998978,None,,,,,,,d,001,2021_Jul_01_1343,toilet,2021.1.3,99.88642910256412,
180,180,-4,4,1.15,,,,,0,0,0,0,0,49,49,34,,,,,,,,,,,,,,,,,,,,,,,244.42977149994113,None,244.42977149994113,None,243.9293782999739,None,j,0.37895829998888075,244.42977149994113,None,,,,,,,d,001,2021_Jul_01_1343,toilet,2021.1.3,99.88642910256412,
0,0,4,-4,0.97,,,,,0,0,0,0,0,50,50,9,,,,,,,,,,,,,,,,,,,,,,,245.81068110000342,None,245.81068110000342,None,245.3203416999895,None,f,0.4060130000580102,245.81068110000342,None,,,,,,,d,001,2021_Jul_01_1343,toilet,2021.1.3,99.88642910256412,
180,180,-4,4,0.85,,,,,0,0,0,0,0,51,51,28,,,,,,,,,,,,,,,,,,,,,,,247.2216263000155,None,247.2216263000155,None,246.72129229991697,None,f,0.41905300004873425,247.2216263000155,None,,,,,,,d,001,2021_Jul_01_1343,toilet,2021.1.3,99.88642910256412,
180,180,-4,4,0.94,,,,,0,0,0,0,0,52,52,29,,,,,,,,,,,,,,,,,,,,,,,248.64258759992663,None,248.64258759992663,None,248.14225199993234,None,f,0.4382785999914631,248.64258759992663,None,,,,,,,d,001,2021_Jul_01_1343,toilet,2021.1.3,99.88642910256412,
180,0,4,-4,0.97,,,,,0,0,0,0,0,53,53,51,,,,,,,,,,,,,,,,,,,,,,,250.0935817999998,None,250.0935817999998,None,249.5932381999446,None,j,0.5234099000226706,250.0935817999998,None,,,,,,,d,001,2021_Jul_01_1343,toilet,2021.1.3,99.88642910256412,
180,180,-4,4,1.06,,,,,0,0,0,0,0,54,54,33,,,,,,,,,,,,,,,,,,,,,,,251.64466290001292,None,251.64466290001292,None,251.1442953000078,None,j,0.5400145999155939,251.64466290001292,None,,,,,,,d,001,2021_Jul_01_1343,toilet,2021.1.3,99.88642910256412,
0,180,-4,4,0.85,,,,,0,0,0,0,0,55,55,14,,,,,,,,,,,,,,,,,,,,,,,253.19568369991612,None,253.19568369991612,None,252.69535809999797,None,f,0.4610013000201434,253.19568369991612,None,,,,,,,d,001,2021_Jul_01_1343,toilet,2021.1.3,99.88642910256412,
180,180,-4,4,0.97,,,,,0,0,0,0,1,0,56,30,,,,,,,,,,,,,,,,,,,,,,,254.6566664999118,None,254.6566664999118,None,254.15632770000957,None,f,0.7600754000013694,254.6566664999118,None,,,,,,,d,001,2021_Jul_01_1343,toilet,2021.1.3,99.88642910256412,
180,0,4,-4,1.15,,,,,0,0,0,0,1,1,57,55,,,,,,,,,,,,,,,,,,,,,,,256.42786459997296,None,256.42786459997296,None,255.92752819997258,None,f,0.46077250002417713,256.42786459997296,None,,,,,,,d,001,2021_Jul_01_1343,toilet,2021.1.3,99.88642910256412,
0,180,4,-4,1.0,,,,,0,0,0,0,1,2,58,24,,,,,,,,,,,,,,,,,,,,,,,257.8989551999839,None,257.8989551999839,None,257.39852169994265,None,f,1.357819499913603,257.8989551999839,None,,,,,,,d,001,2021_Jul_01_1343,toilet,2021.1.3,99.88642910256412,
180,180,-4,4,1.03,,,,,0,0,0,0,1,3,59,32,,,,,,,,,,,,,,,,,,,,,,,260.2704661999596,None,260.2704661999596,None,259.7702212999575,None,j,0.7302195999072865,260.2704661999596,None,,,,,,,d,001,2021_Jul_01_1343,toilet,2021.1.3,99.88642910256412,
180,180,4,-4,1.15,,,,,0,0,0,0,1,4,60,41,,,,,,,,,,,,,,,,,,,,,,,262.0016410999233,None,262.0016410999233,None,261.50130169990007,None,f,0.47107760002836585,262.0016410999233,None,,,,,,,d,001,2021_Jul_01_1343,toilet,2021.1.3,99.88642910256412,
0,0,4,-4,1.0,,,,,0,0,0,0,1,5,61,10,,,,,,,,,,,,,,,,,,,,,,,263.47263979993295,None,263.47263979993295,None,262.9723025999265,None,f,0.7440714000258595,263.47263979993295,None,,,,,,,d,001,2021_Jul_01_1343,toilet,2021.1.3,99.88642910256412,
0,0,-4,4,1.06,,,,,0,0,0,0,1,6,62,5,,,,,,,,,,,,,,,,,,,,,,,265.2238260000013,None,265.2238260000013,None,264.7234887999948,None,j,1.4728511000284925,265.2238260000013,None,,,,,,,d,001,2021_Jul_01_1343,toilet,2021.1.3,99.88642910256412,
180,180,-4,4,1.0,,,,,0,0,0,0,1,7,63,31,,,,,,,,,,,,,,,,,,,,,,,267.7155208999757,None,267.7155208999757,None,267.2151922999183,None,j,1.2370959999971092,267.7155208999757,None,,,,,,,d,001,2021_Jul_01_1343,toilet,2021.1.3,99.88642910256412,
180,180,4,-4,0.85,,,,,0,0,0,0,1,8,64,35,,,,,,,,,,,,,,,,,,,,,,,269.95703189994674,None,269.95703189994674,None,269.456696499954,None,j,0.4357814999530092,269.95703189994674,None,,,,,,,d,001,2021_Jul_01_1343,toilet,2021.1.3,99.88642910256412,
180,180,-4,4,0.94,,,,,0,0,0,0,1,9,65,29,,,,,,,,,,,,,,,,,,,,,,,271.4180268999189,None,271.4180268999189,None,270.9176868000068,None,f,1.3586868999991566,271.4180268999189,None,,,,,,,d,001,2021_Jul_01_1343,toilet,2021.1.3,99.88642910256412,
180,180,-4,4,1.15,,,,,0,0,0,0,1,10,66,34,,,,,,,,,,,,,,,,,,,,,,,273.7896888999967,None,273.7896888999967,None,273.2893836000003,None,j,0.5231218999251723,273.7896888999967,None,,,,,,,d,001,2021_Jul_01_1343,toilet,2021.1.3,99.88642910256412,
180,0,4,-4,1.06,,,,,0,0,0,0,1,11,67,54,,,,,,,,,,,,,,,,,,,,,,,275.33067900000606,None,275.33067900000606,None,274.8303370999638,None,f,0.8220269000157714,275.33067900000606,None,,,,,,,d,001,2021_Jul_01_1343,toilet,2021.1.3,99.88642910256412,
0,0,4,-4,0.94,,,,,0,0,0,0,1,12,68,8,,,,,,,,,,,,,,,,,,,,,,,277.15190789999906,None,277.15190789999906,None,276.65156669996213,None,j,0.5688941000262275,277.15190789999906,None,,,,,,,d,001,2021_Jul_01_1343,toilet,2021.1.3,99.88642910256412,
0,180,-4,4,0.94,,,,,0,0,0,0,1,13,69,15,,,,,,,,,,,,,,,,,,,,,,,278.73305799998343,None,278.73305799998343,None,278.2326433999697,None,f,0.8278268999420106,278.73305799998343,None,,,,,,,d,001,2021_Jul_01_1343,toilet,2021.1.3,99.88642910256412,
0,180,4,-4,0.94,,,,,0,0,0,0,1,14,70,22,,,,,,,,,,,,,,,,,,,,,,,280.5742355999537,None,280.5742355999537,None,280.0739842999028,None,j,0.4425125999841839,280.5742355999537,None,,,,,,,d,001,2021_Jul_01_1343,toilet,2021.1.3,99.88642910256412,
0,180,4,-4,1.06,,,,,0,0,0,0,1,15,71,26,,,,,,,,,,,,,,,,,,,,,,,282.0252266000025,None,282.0252266000025,None,281.5249065000098,None,f,0.6235053000273183,282.0252266000025,None,,,,,,,d,001,2021_Jul_01_1343,toilet,2021.1.3,99.88642910256412,
0,0,4,-4,1.06,,,,,0,0,0,0,1,16,72,12,,,,,,,,,,,,,,,,,,,,,,,283.65631399990525,None,283.65631399990525,None,283.15598019992467,None,f,0.8323508000466973,283.65631399990525,None,,,,,,,d,001,2021_Jul_01_1343,toilet,2021.1.3,99.88642910256412,
180,0,-4,4,1.15,,,,,0,0,0,0,1,17,73,48,,,,,,,,,,,,,,,,,,,,,,,285.4975611999398,None,285.4975611999398,None,284.9972256999463,None,j,0.4632058999268338,285.4975611999398,None,,,,,,,d,001,2021_Jul_01_1343,toilet,2021.1.3,99.88642910256412,
180,0,-4,4,1.0,,,,,0,0,0,0,1,18,74,45,,,,,,,,,,,,,,,,,,,,,,,286.97856819990557,None,286.97856819990557,None,286.47822859999724,None,f,1.5262195999966934,286.97856819990557,None,,,,,,,d,001,2021_Jul_01_1343,toilet,2021.1.3,99.88642910256412,
0,180,-4,4,1.03,,,,,0,0,0,0,1,19,75,18,,,,,,,,,,,,,,,,,,,,,,,289.51029769994784,None,289.51029769994784,None,289.0099813999841,None,j,0.7383240999188274,289.51029769994784,None,,,,,,,d,001,2021_Jul_01_1343,toilet,2021.1.3,99.88642910256412,
180,0,-4,4,0.97,,,,,0,0,0,0,1,20,76,44,,,,,,,,,,,,,,,,,,,,,,,291.25145929993596,None,291.25145929993596,None,290.75112639996223,None,f,1.205153699964285,291.25145929993596,None,,,,,,,d,001,2021_Jul_01_1343,toilet,2021.1.3,99.88642910256412,
180,0,-4,4,0.85,,,,,0,0,0,0,1,21,77,42,,,,,,,,,,,,,,,,,,,,,,,293.462961299927,None,293.462961299927,None,292.96262289991137,None,f,0.46569690003525466,293.462961299927,None,,,,,,,d,001,2021_Jul_01_1343,toilet,2021.1.3,99.88642910256412,
180,0,4,-4,0.94,,,,,0,0,0,0,1,22,78,50,,,,,,,,,,,,,,,,,,,,,,,294.9440606000135,None,294.9440606000135,None,294.44362049992196,None,j,0.6007180000888184,294.9440606000135,None,,,,,,,d,001,2021_Jul_01_1343,toilet,2021.1.3,99.88642910256412,
0,180,-4,4,1.15,,,,,0,0,0,0,1,23,79,20,,,,,,,,,,,,,,,,,,,,,,,296.5550554000074,None,296.5550554000074,None,296.0548031999497,None,j,0.5255837000440806,296.5550554000074,None,,,,,,,d,001,2021_Jul_01_1343,toilet,2021.1.3,99.88642910256412,
0,0,-4,4,0.97,,,,,0,0,0,0,1,24,80,2,,,,,,,,,,,,,,,,,,,,,,,298.0860907000024,None,298.0860907000024,None,297.58575600001495,None,f,1.3786742000374943,298.0860907000024,None,,,,,,,d,001,2021_Jul_01_1343,toilet,2021.1.3,99.88642910256412,
180,180,-4,4,0.85,,,,,0,0,0,0,1,25,81,28,,,,,,,,,,,,,,,,,,,,,,,300.4677122000139,None,300.4677122000139,None,299.9673668999458,None,f,0.48506460001226515,300.4677122000139,None,,,,,,,d,001,2021_Jul_01_1343,toilet,2021.1.3,99.88642910256412,
180,180,4,-4,0.94,,,,,0,0,0,0,1,26,82,36,,,,,,,,,,,,,,,,,,,,,,,301.95872140000574,None,301.95872140000574,None,301.4583807999734,None,j,0.49790800001937896,301.95872140000574,None,,,,,,,d,001,2021_Jul_01_1343,toilet,2021.1.3,99.88642910256412,
0,180,-4,4,1.0,,,,,0,0,0,0,1,27,83,17,,,,,,,,,,,,,,,,,,,,,,,303.459814599948,None,303.459814599948,None,302.95939360000193,None,j,1.332797999959439,303.459814599948,None,,,,,,,d,001,2021_Jul_01_1343,toilet,2021.1.3,99.88642910256412,
0,180,-4,4,0.85,,,,,0,0,0,0,1,28,84,14,,,,,,,,,,,,,,,,,,,,,,,305.8013190999627,None,305.8013190999627,None,305.30098709999584,None,f,0.5432281999383122,305.8013190999627,None,,,,,,,d,001,2021_Jul_01_1343,toilet,2021.1.3,99.88642910256412,
180,0,4,-4,0.85,,,,,0,0,0,0,1,29,85,49,,,,,,,,,,,,,,,,,,,,,,,307.3523728,None,307.3523728,None,306.85203299997374,None,j,0.4002665000734851,307.3523728,None,,,,,,,d,001,2021_Jul_01_1343,toilet,2021.1.3,99.88642910256412,
180,180,4,-4,1.0,,,,,0,0,0,0,1,30,86,38,,,,,,,,,,,,,,,,,,,,,,,308.76332559995353,None,308.76332559995353,None,308.2629887999501,None,f,0.733377099968493,308.76332559995353,None,,,,,,,d,001,2021_Jul_01_1343,toilet,2021.1.3,99.88642910256412,
180,0,-4,4,1.03,,,,,0,0,0,0,1,31,87,46,,,,,,,,,,,,,,,,,,,,,,,310.51451409992296,None,310.51451409992296,None,310.0142601999687,None,j,1.5100606000050902,310.51451409992296,None,,,,,,,d,001,2021_Jul_01_1343,toilet,2021.1.3,99.88642910256412,
0,180,4,-4,1.15,,,,,0,0,0,0,1,32,88,27,,,,,,,,,,,,,,,,,,,,,,,313.0262179999845,None,313.0262179999845,None,312.52587869996205,None,f,0.47041369997896254,313.0262179999845,None,,,,,,,d,001,2021_Jul_01_1343,toilet,2021.1.3,99.88642910256412,
180,0,4,-4,0.97,,,,,0,0,0,0,1,33,89,51,,,,,,,,,,,,,,,,,,,,,,,314.4971911999164,None,314.4971911999164,None,313.9968763999641,None,j,1.4794966999907047,314.4971911999164,None,,,,,,,d,001,2021_Jul_01_1343,toilet,2021.1.3,99.88642910256412,
180,180,4,-4,1.03,,,,,0,0,0,0,1,34,90,39,,,,,,,,,,,,,,,,,,,,,,,316.9889036999084,None,316.9889036999084,None,316.48859959992114,None,f,0.5077515000011772,316.9889036999084,None,,,,,,,d,001,2021_Jul_01_1343,toilet,2021.1.3,99.88642910256412,
0,0,-4,4,1.0,,,,,0,0,0,0,1,35,91,3,,,,,,,,,,,,,,,,,,,,,,,318.509949099971,None,318.509949099971,None,318.0096234999364,None,f,0.6507964000338688,318.509949099971,None,,,,,,,d,001,2021_Jul_01_1343,toilet,2021.1.3,99.88642910256412,
180,180,-4,4,1.06,,,,,0,0,0,0,1,36,92,33,,,,,,,,,,,,,,,,,,,,,,,320.1610477999784,None,320.1610477999784,None,319.66071669990197,None,j,0.743615800049156,320.1610477999784,None,,,,,,,d,001,2021_Jul_01_1343,toilet,2021.1.3,99.88642910256412,
0,180,4,-4,0.85,,,,,0,0,0,0,1,37,93,21,,,,,,,,,,,,,,,,,,,,,,,321.9122371999547,None,321.9122371999547,None,321.4119030999718,None,j,0.4804651999147609,321.9122371999547,None,,,,,,,d,001,2021_Jul_01_1343,toilet,2021.1.3,99.88642910256412,
180,180,4,-4,0.97,,,,,0,0,0,0,1,38,94,37,,,,,,,,,,,,,,,,,,,,,,,323.4032463999465,None,323.4032463999465,None,322.902913399972,None,j,0.9575172999175265,323.4032463999465,None,,,,,,,d,001,2021_Jul_01_1343,toilet,2021.1.3,99.88642910256412,
0,180,-4,4,0.97,,,,,0,0,0,0,1,39,95,16,,,,,,,,,,,,,,,,,,,,,,,325.3746050999034,None,325.3746050999034,None,324.87427829997614,None,f,1.1139511000365019,325.3746050999034,None,,,,,,,d,001,2021_Jul_01_1343,toilet,2021.1.3,99.88642910256412,
180,180,4,-4,1.06,,,,,0,0,0,0,1,40,96,40,,,,,,,,,,,,,,,,,,,,,,,327.4960189999547,None,327.4960189999547,None,326.9956823999528,None,f,0.8171278999652714,327.4960189999547,None,,,,,,,d,001,2021_Jul_01_1343,toilet,2021.1.3,99.88642910256412,
0,0,-4,4,1.03,,,,,0,0,0,0,1,41,97,4,,,,,,,,,,,,,,,,,,,,,,,329.3272820999846,None,329.3272820999846,None,328.83692439994775,None,j,1.1774802000727504,329.3272820999846,None,,,,,,,d,001,2021_Jul_01_1343,toilet,2021.1.3,99.88642910256412,
0,180,4,-4,0.97,,,,,0,0,0,0,1,42,98,23,,,,,,,,,,,,,,,,,,,,,,,331.5287566999905,None,331.5287566999905,None,331.02841009991243,None,j,0.8320209999801591,331.5287566999905,None,,,,,,,d,001,2021_Jul_01_1343,toilet,2021.1.3,99.88642910256412,
0,180,4,-4,1.03,,,,,0,0,0,0,1,43,99,25,,,,,,,,,,,,,,,,,,,,,,,333.3700320000062,None,333.3700320000062,None,332.86974180000834,None,f,0.8306250999448821,333.3700320000062,None,,,,,,,d,001,2021_Jul_01_1343,toilet,2021.1.3,99.88642910256412,
0,0,4,-4,1.03,,,,,0,0,0,0,1,44,100,11,,,,,,,,,,,,,,,,,,,,,,,335.2012478999095,None,335.2012478999095,None,334.7009021999547,None,f,0.855299299932085,335.2012478999095,None,,,,,,,d,001,2021_Jul_01_1343,toilet,2021.1.3,99.88642910256412,
180,0,4,-4,1.0,,,,,0,0,0,0,1,45,101,52,,,,,,,,,,,,,,,,,,,,,,,337.0625038999133,None,337.0625038999133,None,336.56216149998363,None,j,0.7700430999975652,337.0625038999133,None,,,,,,,d,001,2021_Jul_01_1343,toilet,2021.1.3,99.88642910256412,
0,0,-4,4,0.94,,,,,0,0,0,0,1,46,102,1,,,,,,,,,,,,,,,,,,,,,,,338.8337983000092,None,338.8337983000092,None,338.33335849992,None,f,0.45485150010790676,338.8337983000092,None,,,,,,,d,001,2021_Jul_01_1343,toilet,2021.1.3,99.88642910256412,
180,0,-4,4,1.06,,,,,0,0,0,0,1,47,103,47,,,,,,,,,,,,,,,,,,,,,,,340.29472589993384,None,340.29472589993384,None,339.7943690000102,None,j,0.6099826000863686,340.29472589993384,None,,,,,,,d,001,2021_Jul_01_1343,toilet,2021.1.3,99.88642910256412,
0,180,-4,4,1.06,,,,,0,0,0,0,1,48,104,19,,,,,,,,,,,,,,,,,,,,,,,341.9057805999182,None,341.9057805999182,None,341.4054475999437,None,j,0.7588410000316799,341.9057805999182,None,,,,,,,d,001,2021_Jul_01_1343,toilet,2021.1.3,99.88642910256412,
0,0,-4,4,0.85,,,,,0,0,0,0,1,49,105,0,,,,,,,,,,,,,,,,,,,,,,,343.66697479994036,None,343.66697479994036,None,343.1666336999042,None,f,0.8216916000237688,343.66697479994036,None,,,,,,,d,001,2021_Jul_01_1343,toilet,2021.1.3,99.88642910256412,
180,0,4,-4,1.03,,,,,0,0,0,0,1,50,106,53,,,,,,,,,,,,,,,,,,,,,,,345.49821379990317,None,345.49821379990317,None,344.99787959991954,None,f,0.9584420999744907,345.49821379990317,None,,,,,,,d,001,2021_Jul_01_1343,toilet,2021.1.3,99.88642910256412,
0,0,4,-4,1.15,,,,,0,0,0,0,1,51,107,13,,,,,,,,,,,,,,,,,,,,,,,347.45962589990813,None,347.45962589990813,None,346.959245899925,None,f,0.549000300001353,347.45962589990813,None,,,,,,,d,001,2021_Jul_01_1343,toilet,2021.1.3,99.88642910256412,
0,0,4,-4,0.85,,,,,0,0,0,0,1,52,108,7,,,,,,,,,,,,,,,,,,,,,,,349.02060269995127,None,349.02060269995127,None,348.52026979997754,None,j,0.6359690999379382,349.02060269995127,None,,,,,,,d,001,2021_Jul_01_1343,toilet,2021.1.3,99.88642910256412,
180,0,-4,4,0.94,,,,,0,0,0,0,1,53,109,43,,,,,,,,,,,,,,,,,,,,,,,350.6617176999571,None,350.6617176999571,None,350.161383699975,None,f,1.5229185000061989,350.6617176999571,None,,,,,,,d,001,2021_Jul_01_1343,toilet,2021.1.3,99.88642910256412,
0,0,-4,4,1.15,,,,,0,0,0,0,1,54,110,6,,,,,,,,,,,,,,,,,,,,,,,353.2134447999997,None,353.2134447999997,None,352.7131063999841,None,j,0.45930690004024655,353.2134447999997,None,,,,,,,d,001,2021_Jul_01_1343,toilet,2021.1.3,99.88642910256412,
0,0,4,-4,0.97,,,,,0,0,0,0,1,55,111,9,,,,,,,,,,,,,,,,,,,,,,,354.68452479992993,None,354.68452479992993,None,354.1841033999808,None,j,2.5240259000565857,354.68452479992993,None,,,,,,,d,001,2021_Jul_01_1343,toilet,2021.1.3,99.88642910256412,
,,,,,,,,,0,0,0,0,,,,,,,,,,,,,,,,,,,,,,,,,,,,,,,,,,,,,357.2262435000157,None,space,3.4545027000131086,357.2262435000157,None,d,001,2021_Jul_01_1343,toilet,2021.1.3,99.88642910256412,
0,180,-4,4,0.94,,,,,1,0,1,0,0,0,0,15,,,,,,,,,,,,,,,,,360.69851589994505,None,space,1.6460994000080973,360.69851589994505,None,363.37032459990587,None,363.37032459990587,None,362.87000429991167,None,f,0.5103779999772087,363.37032459990587,None,,,,,,,d,001,2021_Jul_01_1343,toilet,2021.1.3,99.88642910256412,
0,180,4,-4,1.0,,,,,1,0,1,0,0,1,1,24,,,,,,,,,,,,,,,,,,,,,,,364.88135049992707,None,364.88135049992707,None,364.38101109990384,None,f,0.6312901999335736,364.88135049992707,None,,,,,,,d,001,2021_Jul_01_1343,toilet,2021.1.3,99.88642910256412,
0,180,-4,4,0.85,,,,,1,0,1,0,0,2,2,14,,,,,,,,,,,,,,,,,,,,,,,366.51245649997145,None,366.51245649997145,None,366.01212279999163,None,f,0.4882199000567198,366.51245649997145,None,,,,,,,d,001,2021_Jul_01_1343,toilet,2021.1.3,99.88642910256412,
180,180,4,-4,0.97,,,,,1,0,1,0,0,3,3,37,,,,,,,,,,,,,,,,,,,,,,,368.01347459992394,None,368.01347459992394,None,367.5131320999935,None,f,2.6351709000300616,368.01347459992394,None,,,,,,,d,001,2021_Jul_01_1343,toilet,2021.1.3,99.88642910256412,
0,0,-4,4,1.03,,,,,1,0,1,0,0,4,4,4,,,,,,,,,,,,,,,,,,,,,,,371.6559389999602,None,371.6559389999602,None,371.1555973999202,None,j,0.464635300100781,371.6559389999602,None,,,,,,,d,001,2021_Jul_01_1343,toilet,2021.1.3,99.88642910256412,
180,0,4,-4,0.97,,,,,1,0,1,0,0,5,5,51,,,,,,,,,,,,,,,,,,,,,,,373.12694240000565,None,373.12694240000565,None,372.6265965999337,None,j,0.753727599978447,373.12694240000565,None,,,,,,,d,001,2021_Jul_01_1343,toilet,2021.1.3,99.88642910256412,
0,0,4,-4,0.85,,,,,1,0,1,0,0,6,6,7,,,,,,,,,,,,,,,,,,,,,,,374.88812629994936,None,374.88812629994936,None,374.3877885999391,None,j,0.5925022999290377,374.88812629994936,None,,,,,,,d,001,2021_Jul_01_1343,toilet,2021.1.3,99.88642910256412,
0,0,4,-4,1.06,,,,,1,0,1,0,0,7,7,12,,,,,,,,,,,,,,,,,,,,,,,376.49921829998493,None,376.49921829998493,None,375.9989639999112,None,f,0.8694089000346139,376.49921829998493,None,,,,,,,d,001,2021_Jul_01_1343,toilet,2021.1.3,99.88642910256412,
180,0,-4,4,1.03,,,,,1,0,1,0,0,8,8,46,,,,,,,,,,,,,,,,,,,,,,,378.380491699907,None,378.380491699907,None,377.8801928999601,None,j,0.7321089999750257,378.380491699907,None,,,,,,,d,001,2021_Jul_01_1343,toilet,2021.1.3,99.88642910256412,
0,180,-4,4,1.03,,,,,1,0,1,0,0,9,9,18,,,,,,,,,,,,,,,,,,,,,,,380.12167209992185,None,380.12167209992185,None,379.62133579992224,None,j,0.8950516999466345,380.12167209992185,None,,,,,,,d,001,2021_Jul_01_1343,toilet,2021.1.3,99.88642910256412,
180,180,-4,4,1.06,,,,,1,0,1,0,0,10,10,33,,,,,,,,,,,,,,,,,,,,,,,382.0229592999676,None,382.0229592999676,None,381.5326617999235,None,j,0.6257885000668466,382.0229592999676,None,,,,,,,d,001,2021_Jul_01_1343,toilet,2021.1.3,99.88642910256412,
180,0,-4,4,1.0,,,,,1,0,1,0,0,11,11,45,,,,,,,,,,,,,,,,,,,,,,,383.66411199991126,None,383.66411199991126,None,383.1637302999152,None,f,0.9364062999375165,383.66411199991126,None,,,,,,,d,001,2021_Jul_01_1343,toilet,2021.1.3,99.88642910256412,
180,180,-4,4,1.0,,,,,1,0,1,0,0,12,12,31,,,,,,,,,,,,,,,,,,,,,,,385.60539749998134,None,385.60539749998134,None,385.1050914999796,None,f,0.8832739000208676,385.60539749998134,None,,,,,,,d,001,2021_Jul_01_1343,toilet,2021.1.3,99.88642910256412,
0,180,4,-4,1.03,,,,,1,0,1,0,0,13,13,25,,,,,,,,,,,,,,,,,,,,,,,387.4966689000139,None,387.4966689000139,None,386.99633389990777,None,f,1.280018400051631,387.4966689000139,None,,,,,,,d,001,2021_Jul_01_1343,toilet,2021.1.3,99.88642910256412,
0,0,-4,4,1.0,,,,,1,0,1,0,0,14,14,3,,,,,,,,,,,,,,,,,,,,,,,389.78821969998535,None,389.78821969998535,None,389.28788469999563,None,j,0.780348000000231,389.78821969998535,None,,,,,,,d,001,2021_Jul_01_1343,toilet,2021.1.3,99.88642910256412,
180,180,-4,4,0.97,,,,,1,0,1,0,0,15,15,30,,,,,,,,,,,,,,,,,,,,,,,391.56951599998865,None,391.56951599998865,None,391.0690891999984,None,f,1.1590668999124318,391.56951599998865,None,,,,,,,d,001,2021_Jul_01_1343,toilet,2021.1.3,99.88642910256412,
180,0,-4,4,0.94,,,,,1,0,1,0,0,16,16,43,,,,,,,,,,,,,,,,,,,,,,,393.73090349999256,None,393.73090349999256,None,393.23055239999667,None,f,0.5976648000068963,393.73090349999256,None,,,,,,,d,001,2021_Jul_01_1343,toilet,2021.1.3,99.88642910256412,
180,0,-4,4,0.97,,,,,1,0,1,0,0,17,17,44,,,,,,,,,,,,,,,,,,,,,,,395.3319766999921,None,395.3319766999921,None,394.8316381999757,None,f,1.2526197000406682,395.3319766999921,None,,,,,,,d,001,2021_Jul_01_1343,toilet,2021.1.3,99.88642910256412,
180,180,4,-4,1.15,,,,,1,0,1,0,0,18,18,41,,,,,,,,,,,,,,,,,,,,,,,397.59352789993864,None,397.59352789993864,None,397.0931683999952,None,f,0.5111252999631688,397.59352789993864,None,,,,,,,d,001,2021_Jul_01_1343,toilet,2021.1.3,99.88642910256412,
180,180,4,-4,1.0,,,,,1,0,1,0,0,19,19,38,,,,,,,,,,,,,,,,,,,,,,,399.10453879996203,None,399.10453879996203,None,398.6042751999339,None,f,1.0480053999926895,399.10453879996203,None,,,,,,,d,001,2021_Jul_01_1343,toilet,2021.1.3,99.88642910256412,
0,0,4,-4,0.94,,,,,1,0,1,0,0,20,20,8,,,,,,,,,,,,,,,,,,,,,,,401.15592099993955,None,401.15592099993955,None,400.6555904999841,None,j,0.6925560999661684,401.15592099993955,None,,,,,,,d,001,2021_Jul_01_1343,toilet,2021.1.3,99.88642910256412,
180,180,4,-4,0.94,,,,,1,0,1,0,0,21,21,36,,,,,,,,,,,,,,,,,,,,,,,402.8570789999794,None,402.8570789999794,None,402.35673899995163,None,j,0.5595964000094682,402.8570789999794,None,,,,,,,d,001,2021_Jul_01_1343,toilet,2021.1.3,99.88642910256412,
0,0,-4,4,0.97,,,,,1,0,1,0,0,22,22,2,,,,,,,,,,,,,,,,,,,,,,,404.4281381999608,None,404.4281381999608,None,403.9278078000061,None,f,0.6524947999278083,404.4281381999608,None,,,,,,,d,001,2021_Jul_01_1343,toilet,2021.1.3,99.88642910256412,
0,180,4,-4,0.85,,,,,1,0,1,0,0,23,23,21,,,,,,,,,,,,,,,,,,,,,,,406.0893520999234,None,406.0893520999234,None,405.58895899995696,None,j,0.49530650000087917,406.0893520999234,None,,,,,,,d,001,2021_Jul_01_1343,toilet,2021.1.3,99.88642910256412,
0,0,4,-4,1.0,,,,,1,0,1,0,0,24,24,10,,,,,,,,,,,,,,,,,,,,,,,407.60028599994257,None,407.60028599994257,None,407.09996699995827,None,j,0.7923542999196798,407.60028599994257,None,,,,,,,d,001,2021_Jul_01_1343,toilet,2021.1.3,99.88642910256412,
0,180,4,-4,1.06,,,,,1,0,1,0,0,25,25,26,,,,,,,,,,,,,,,,,,,,,,,409.40150849998463,None,409.40150849998463,None,408.90116739994846,None,f,0.4791177000151947,409.40150849998463,None,,,,,,,d,001,2021_Jul_01_1343,toilet,2021.1.3,99.88642910256412,
0,180,4,-4,0.97,,,,,1,0,1,0,0,26,26,23,,,,,,,,,,,,,,,,,,,,,,,410.8825107999146,None,410.8825107999146,None,410.38218239997514,None,f,0.9821778000332415,410.8825107999146,None,,,,,,,d,001,2021_Jul_01_1343,toilet,2021.1.3,99.88642910256412,
180,180,-4,4,0.85,,,,,1,0,1,0,0,27,27,28,,,,,,,,,,,,,,,,,,,,,,,412.8738622999517,None,412.8738622999517,None,412.37354039994534,None,f,0.4307400999823585,412.8738622999517,None,,,,,,,d,001,2021_Jul_01_1343,toilet,2021.1.3,99.88642910256412,
0,0,4,-4,1.15,,,,,1,0,1,0,0,28,28,13,,,,,,,,,,,,,,,,,,,,,,,414.3048115000129,None,414.3048115000129,None,413.80453079997096,None,f,0.6156956000486389,414.3048115000129,None,,,,,,,d,001,2021_Jul_01_1343,toilet,2021.1.3,99.88642910256412,
180,180,4,-4,1.06,,,,,1,0,1,0,0,29,29,40,,,,,,,,,,,,,,,,,,,,,,,415.9259277000092,None,415.9259277000092,None,415.4255887999898,None,f,0.5306476000696421,415.9259277000092,None,,,,,,,d,001,2021_Jul_01_1343,toilet,2021.1.3,99.88642910256412,
0,180,-4,4,0.97,,,,,1,0,1,0,0,30,30,16,,,,,,,,,,,,,,,,,,,,,,,417.45696559990756,None,417.45696559990756,None,416.95662599999923,None,f,0.8396202999865636,417.45696559990756,None,,,,,,,d,001,2021_Jul_01_1343,toilet,2021.1.3,99.88642910256412,
180,180,4,-4,1.03,,,,,1,0,1,0,0,31,31,39,,,,,,,,,,,,,,,,,,,,,,,419.3082143999636,None,419.3082143999636,None,418.80788239999674,None,f,0.988323999918066,419.3082143999636,None,,,,,,,d,001,2021_Jul_01_1343,toilet,2021.1.3,99.88642910256412,
0,0,-4,4,1.06,,,,,1,0,1,0,0,32,32,5,,,,,,,,,,,,,,,,,,,,,,,421.3096622999292,None,421.3096622999292,None,420.8093353000004,None,j,0.554879599949345,421.3096622999292,None,,,,,,,d,001,2021_Jul_01_1343,toilet,2021.1.3,99.88642910256412,
0,180,4,-4,0.94,,,,,1,0,1,0,0,33,33,22,,,,,,,,,,,,,,,,,,,,,,,422.870634199935,None,422.870634199935,None,422.3702915000031,None,j,0.7539553999667987,422.870634199935,None,,,,,,,d,001,2021_Jul_01_1343,toilet,2021.1.3,99.88642910256412,
0,180,-4,4,1.15,,,,,1,0,1,0,0,34,34,20,,,,,,,,,,,,,,,,,,,,,,,424.631826799945,None,424.631826799945,None,424.1314845000161,None,j,0.5449342000065371,424.631826799945,None,,,,,,,d,001,2021_Jul_01_1343,toilet,2021.1.3,99.88642910256412,
0,0,-4,4,0.85,,,,,1,0,1,0,0,35,35,0,,,,,,,,,,,,,,,,,,,,,,,426.20289379998576,None,426.20289379998576,None,425.7025507999351,None,f,0.3978648000629619,426.20289379998576,None,,,,,,,d,001,2021_Jul_01_1343,toilet,2021.1.3,99.88642910256412,
180,0,-4,4,0.85,,,,,1,0,1,0,0,36,36,42,,,,,,,,,,,,,,,,,,,,,,,427.61394599999767,None,427.61394599999767,None,427.113506799913,None,f,0.6025280999019742,427.61394599999767,None,,,,,,,d,001,2021_Jul_01_1343,toilet,2021.1.3,99.88642910256412,
0,180,4,-4,1.15,,,,,1,0,1,0,0,37,37,27,,,,,,,,,,,,,,,,,,,,,,,429.22501519997604,None,429.22501519997604,None,428.72467079991475,None,f,0.7035331999650225,429.22501519997604,None,,,,,,,d,001,2021_Jul_01_1343,toilet,2021.1.3,99.88642910256412,
0,0,-4,4,0.94,,,,,1,0,1,0,0,38,38,1,,,,,,,,,,,,,,,,,,,,,,,430.9360960999038,None,430.9360960999038,None,430.4357604999095,None,f,2.5445026999805123,430.9360960999038,None,,,,,,,d,001,2021_Jul_01_1343,toilet,2021.1.3,99.88642910256412,
180,180,-4,4,0.94,,,,,1,0,1,0,0,39,39,29,,,,,,,,,,,,,,,,,,,,,,,434.49850849993527,None,434.49850849993527,None,433.9981730999425,None,f,0.6780766999581829,434.49850849993527,None,,,,,,,d,001,2021_Jul_01_1343,toilet,2021.1.3,99.88642910256412,
180,180,4,-4,0.85,,,,,1,0,1,0,0,40,40,35,,,,,,,,,,,,,,,,,,,,,,,436.1796630999306,None,436.1796630999306,None,435.6893970000092,None,j,0.484867199906148,436.1796630999306,None,,,,,,,d,001,2021_Jul_01_1343,toilet,2021.1.3,99.88642910256412,
0,0,4,-4,1.03,,,,,1,0,1,0,0,41,41,11,,,,,,,,,,,,,,,,,,,,,,,437.67066139995586,None,437.67066139995586,None,437.1803297000006,None,f,0.5138865999178961,437.67066139995586,None,,,,,,,d,001,2021_Jul_01_1343,toilet,2021.1.3,99.88642910256412,
0,0,-4,4,1.15,,,,,1,0,1,0,0,42,42,6,,,,,,,,,,,,,,,,,,,,,,,439.1916866999818,None,439.1916866999818,None,438.69138279999606,None,j,0.400953600066714,439.1916866999818,None,,,,,,,d,001,2021_Jul_01_1343,toilet,2021.1.3,99.88642910256412,
0,0,4,-4,0.97,,,,,1,0,1,0,0,43,43,9,,,,,,,,,,,,,,,,,,,,,,,440.59264609997626,None,440.59264609997626,None,440.09229890001006,None,j,0.7119237000588328,440.59264609997626,None,,,,,,,d,001,2021_Jul_01_1343,toilet,2021.1.3,99.88642910256412,
180,180,-4,4,1.15,,,,,1,0,1,0,0,44,44,34,,,,,,,,,,,,,,,,,,,,,,,442.31380979996175,None,442.31380979996175,None,441.8134633000009,None,j,0.47880699997767806,442.31380979996175,None,,,,,,,d,001,2021_Jul_01_1343,toilet,2021.1.3,99.88642910256412,
180,0,4,-4,0.85,,,,,1,0,1,0,0,45,45,49,,,,,,,,,,,,,,,,,,,,,,,443.804818399949,None,443.804818399949,None,443.3044943999266,None,j,0.44362769997678697,443.804818399949,None,,,,,,,d,001,2021_Jul_01_1343,toilet,2021.1.3,99.88642910256412,
180,0,4,-4,1.0,,,,,1,0,1,0,0,46,46,52,,,,,,,,,,,,,,,,,,,,,,,445.2658008999424,None,445.2658008999424,None,444.7654647999443,None,j,1.5268257999559864,445.2658008999424,None,,,,,,,d,001,2021_Jul_01_1343,toilet,2021.1.3,99.88642910256412,
180,0,-4,4,1.15,,,,,1,0,1,0,0,47,47,48,,,,,,,,,,,,,,,,,,,,,,,447.81752849998884,None,447.81752849998884,None,447.3171957999002,None,j,0.5271024000830948,447.81752849998884,None,,,,,,,d,001,2021_Jul_01_1343,toilet,2021.1.3,99.88642910256412,
180,0,4,-4,1.06,,,,,1,0,1,0,0,48,48,54,,,,,,,,,,,,,,,,,,,,,,,449.3685848999303,None,449.3685848999303,None,448.868245099904,None,f,0.4159286000067368,449.3685848999303,None,,,,,,,d,001,2021_Jul_01_1343,toilet,2021.1.3,99.88642910256412,
180,0,4,-4,0.94,,,,,1,0,1,0,0,49,49,50,,,,,,,,,,,,,,,,,,,,,,,450.7895533000119,None,450.7895533000119,None,450.28927840001415,None,j,0.8031609000172466,450.7895533000119,None,,,,,,,d,001,2021_Jul_01_1343,toilet,2021.1.3,99.88642910256412,
180,0,4,-4,1.15,,,,,1,0,1,0,0,50,50,55,,,,,,,,,,,,,,,,,,,,,,,452.6107798999874,None,452.6107798999874,None,452.1104393999558,None,f,0.7257017000811175,452.6107798999874,None,,,,,,,d,001,2021_Jul_01_1343,toilet,2021.1.3,99.88642910256412,
180,0,4,-4,1.03,,,,,1,0,1,0,0,51,51,53,,,,,,,,,,,,,,,,,,,,,,,454.3419514999259,None,454.3419514999259,None,453.8416125999065,None,f,1.0746741000330076,454.3419514999259,None,,,,,,,d,001,2021_Jul_01_1343,toilet,2021.1.3,99.88642910256412,
180,0,-4,4,1.06,,,,,1,0,1,0,0,52,52,47,,,,,,,,,,,,,,,,,,,,,,,456.43337139999494,None,456.43337139999494,None,455.93303289997857,None,j,0.8552568000741303,456.43337139999494,None,,,,,,,d,001,2021_Jul_01_1343,toilet,2021.1.3,99.88642910256412,
180,180,-4,4,1.03,,,,,1,0,1,0,0,53,53,32,,,,,,,,,,,,,,,,,,,,,,,458.31472409993876,None,458.31472409993876,None,457.814328599954,None,j,0.6377738000592217,458.31472409993876,None,,,,,,,d,001,2021_Jul_01_1343,toilet,2021.1.3,99.88642910256412,
0,180,-4,4,1.06,,,,,1,0,1,0,0,54,54,19,,,,,,,,,,,,,,,,,,,,,,,459.95575640001334,None,459.95575640001334,None,459.46542179991957,None,j,0.5167467000428587,459.95575640001334,None,,,,,,,d,001,2021_Jul_01_1343,toilet,2021.1.3,99.88642910256412,
0,180,-4,4,1.0,,,,,1,0,1,0,0,55,55,17,,,,,,,,,,,,,,,,,,,,,,,461.4767869999632,None,461.4767869999632,None,460.97644459991716,None,j,0.7556503999512643,461.4767869999632,None,,,,,,,d,001,2021_Jul_01_1343,toilet,2021.1.3,99.88642910256412,
0,0,-4,4,0.85,,,,,1,0,1,0,1,0,56,0,,,,,,,,,,,,,,,,,,,,,,,463.23798849992454,None,463.23798849992454,None,462.737647300004,None,f,0.6266161999665201,463.23798849992454,None,,,,,,,d,001,2021_Jul_01_1343,toilet,2021.1.3,99.88642910256412,
180,0,-4,4,1.15,,,,,1,0,1,0,1,1,57,48,,,,,,,,,,,,,,,,,,,,,,,464.87917989993,None,464.87917989993,None,464.37874959991314,None,j,0.47337180003523827,464.87917989993,None,,,,,,,d,001,2021_Jul_01_1343,toilet,2021.1.3,99.88642910256412,
180,0,-4,4,0.94,,,,,1,0,1,0,1,2,58,43,,,,,,,,,,,,,,,,,,,,,,,466.3601369999815,None,466.3601369999815,None,465.85978749999776,None,f,0.480272899963893,466.3601369999815,None,,,,,,,d,001,2021_Jul_01_1343,toilet,2021.1.3,99.88642910256412,
180,180,-4,4,0.85,,,,,1,0,1,0,1,3,59,28,,,,,,,,,,,,,,,,,,,,,,,467.8410956999287,None,467.8410956999287,None,467.340760699939,None,f,0.4553671999601647,467.8410956999287,None,,,,,,,d,001,2021_Jul_01_1343,toilet,2021.1.3,99.88642910256412,
0,180,-4,4,1.06,,,,,1,0,1,0,1,4,60,19,,,,,,,,,,,,,,,,,,,,,,,469.3120895999018,None,469.3120895999018,None,468.8117757999571,None,j,0.6484829999972135,469.3120895999018,None,,,,,,,d,001,2021_Jul_01_1343,toilet,2021.1.3,99.88642910256412,
0,0,-4,4,0.94,,,,,1,0,1,0,1,5,61,1,,,,,,,,,,,,,,,,,,,,,,,470.96321259997785,None,470.96321259997785,None,470.46287059993483,None,f,0.549243799992837,470.96321259997785,None,,,,,,,d,001,2021_Jul_01_1343,toilet,2021.1.3,99.88642910256412,
180,0,-4,4,0.97,,,,,1,0,1,0,1,6,62,44,,,,,,,,,,,,,,,,,,,,,,,472.5142788999947,None,472.5142788999947,None,472.0139237999683,None,f,0.7423241999931633,472.5142788999947,None,,,,,,,d,001,2021_Jul_01_1343,toilet,2021.1.3,99.88642910256412,
0,0,4,-4,0.85,,,,,1,0,1,0,1,7,63,7,,,,,,,,,,,,,,,,,,,,,,,474.2654459999176,None,474.2654459999176,None,473.76511179993395,None,j,0.46309229999314994,474.2654459999176,None,,,,,,,d,001,2021_Jul_01_1343,toilet,2021.1.3,99.88642910256412,
180,0,4,-4,1.15,,,,,1,0,1,0,1,8,64,55,,,,,,,,,,,,,,,,,,,,,,,475.73644899996,None,475.73644899996,None,475.2361290999688,None,f,0.40010179998353124,475.73644899996,None,,,,,,,d,001,2021_Jul_01_1343,toilet,2021.1.3,99.88642910256412,
0,180,4,-4,1.03,,,,,1,0,1,0,1,9,65,25,,,,,,,,,,,,,,,,,,,,,,,477.14739940001164,None,477.14739940001164,None,476.6470587999793,None,f,1.5011748999822885,477.14739940001164,None,,,,,,,d,001,2021_Jul_01_1343,toilet,2021.1.3,99.88642910256412,
180,180,-4,4,1.03,,,,,1,0,1,0,1,10,66,32,,,,,,,,,,,,,,,,,,,,,,,479.65911709994543,None,479.65911709994543,None,479.15880189999007,None,j,1.2615254999836907,479.65911709994543,None,,,,,,,d,001,2021_Jul_01_1343,toilet,2021.1.3,99.88642910256412,
180,180,-4,4,1.06,,,,,1,0,1,0,1,11,67,33,,,,,,,,,,,,,,,,,,,,,,,481.93063459999394,None,481.93063459999394,None,481.4303034999175,None,j,0.4458257000660524,481.93063459999394,None,,,,,,,d,001,2021_Jul_01_1343,toilet,2021.1.3,99.88642910256412,
0,180,-4,4,0.94,,,,,1,0,1,0,1,12,68,15,,,,,,,,,,,,,,,,,,,,,,,483.3816258999286,None,483.3816258999286,None,482.88128119998146,None,f,0.786970500019379,483.3816258999286,None,,,,,,,d,001,2021_Jul_01_1343,toilet,2021.1.3,99.88642910256412,
0,0,-4,4,1.03,,,,,1,0,1,0,1,13,69,4,,,,,,,,,,,,,,,,,,,,,,,485.1928503999952,None,485.1928503999952,None,484.69253339990973,None,j,0.6237413000781089,485.1928503999952,None,,,,,,,d,001,2021_Jul_01_1343,toilet,2021.1.3,99.88642910256412,
180,0,-4,4,1.06,,,,,1,0,1,0,1,14,70,47,,,,,,,,,,,,,,,,,,,,,,,486.83400029991753,None,486.83400029991753,None,486.3336278999923,None,j,0.7585724999662489,486.83400029991753,None,,,,,,,d,001,2021_Jul_01_1343,toilet,2021.1.3,99.88642910256412,
0,180,-4,4,0.97,,,,,1,0,1,0,1,15,71,16,,,,,,,,,,,,,,,,,,,,,,,488.60516489995643,None,488.60516489995643,None,488.1048337999964,None,f,0.9072822000598535,488.60516489995643,None,,,,,,,d,001,2021_Jul_01_1343,toilet,2021.1.3,99.88642910256412,
0,0,4,-4,0.97,,,,,1,0,1,0,1,16,72,9,,,,,,,,,,,,,,,,,,,,,,,490.5164556999225,None,490.5164556999225,None,490.01612029992975,None,f,0.8361554000293836,490.5164556999225,None,,,,,,,d,001,2021_Jul_01_1343,toilet,2021.1.3,99.88642910256412,
0,0,4,-4,1.06,,,,,1,0,1,0,1,17,73,12,,,,,,,,,,,,,,,,,,,,,,,492.36770870001055,None,492.36770870001055,None,491.8673727000132,None,f,0.6809911000309512,492.36770870001055,None,,,,,,,d,001,2021_Jul_01_1343,toilet,2021.1.3,99.88642910256412,
0,180,-4,4,1.03,,,,,1,0,1,0,1,18,74,18,,,,,,,,,,,,,,,,,,,,,,,494.05885489995126,None,494.05885489995126,None,493.55859209992923,None,j,0.6857488999376073,494.05885489995126,None,,,,,,,d,001,2021_Jul_01_1343,toilet,2021.1.3,99.88642910256412,
180,180,4,-4,1.0,,,,,1,0,1,0,1,19,75,38,,,,,,,,,,,,,,,,,,,,,,,495.7600245999638,None,495.7600245999638,None,495.2596864999505,None,f,0.8404197000199929,495.7600245999638,None,,,,,,,d,001,2021_Jul_01_1343,toilet,2021.1.3,99.88642910256412,
180,0,4,-4,1.06,,,,,1,0,1,0,1,20,76,54,,,,,,,,,,,,,,,,,,,,,,,497.60125579999294,None,497.60125579999294,None,497.10092429991346,None,f,1.52736810001079,497.60125579999294,None,,,,,,,d,001,2021_Jul_01_1343,toilet,2021.1.3,99.88642910256412,
180,0,-4,4,1.03,,,,,1,0,1,0,1,21,77,46,,,,,,,,,,,,,,,,,,,,,,,500.1529797000112,None,500.1529797000112,None,499.6526461999165,None,f,1.6155831000069156,500.1529797000112,None,,,,,,,d,001,2021_Jul_01_1343,toilet,2021.1.3,99.88642910256412,
0,180,-4,4,0.85,,,,,1,0,1,0,1,22,78,14,,,,,,,,,,,,,,,,,,,,,,,502.7847815999994,None,502.7847815999994,None,502.284521900001,None,f,1.4796547000296414,502.7847815999994,None,,,,,,,d,001,2021_Jul_01_1343,toilet,2021.1.3,99.88642910256412,
0,0,4,-4,1.0,,,,,1,0,1,0,1,23,79,10,,,,,,,,,,,,,,,,,,,,,,,505.26644729997497,None,505.26644729997497,None,504.76611029997,None,f,1.7663034000433981,505.26644729997497,None,,,,,,,d,001,2021_Jul_01_1343,toilet,2021.1.3,99.88642910256412,
0,180,-4,4,1.15,,,,,1,0,1,0,1,24,80,20,,,,,,,,,,,,,,,,,,,,,,,508.0583396999864,None,508.0583396999864,None,507.5579996999586,None,j,0.446276200003922,508.0583396999864,None,,,,,,,d,001,2021_Jul_01_1343,toilet,2021.1.3,99.88642910256412,
180,180,-4,4,0.94,,,,,1,0,1,0,1,25,81,29,,,,,,,,,,,,,,,,,,,,,,,509.50941830000374,None,509.50941830000374,None,509.0190708999289,None,f,0.627054400043562,509.50941830000374,None,,,,,,,d,001,2021_Jul_01_1343,toilet,2021.1.3,99.88642910256412,
180,0,-4,4,0.85,,,,,1,0,1,0,1,26,82,42,,,,,,,,,,,,,,,,,,,,,,,511.14043079991825,None,511.14043079991825,None,510.64009369991254,None,f,0.803966399980709,511.14043079991825,None,,,,,,,d,001,2021_Jul_01_1343,toilet,2021.1.3,99.88642910256412,
0,180,4,-4,0.85,,,,,1,0,1,0,1,27,83,21,,,,,,,,,,,,,,,,,,,,,,,512.9516502999468,None,512.9516502999468,None,512.4513135999441,None,j,0.4648728999309242,512.9516502999468,None,,,,,,,d,001,2021_Jul_01_1343,toilet,2021.1.3,99.88642910256412,
0,180,-4,4,1.0,,,,,1,0,1,0,1,28,84,17,,,,,,,,,,,,,,,,,,,,,,,514.432658799924,None,514.432658799924,None,513.9323190000141,None,j,0.9998360000317916,514.432658799924,None,,,,,,,d,001,2021_Jul_01_1343,toilet,2021.1.3,99.88642910256412,
180,0,4,-4,0.97,,,,,1,0,1,0,1,29,85,51,,,,,,,,,,,,,,,,,,,,,,,516.4441106999293,None,516.4441106999293,None,515.9436765999999,None,j,1.1003161000553519,516.4441106999293,None,,,,,,,d,001,2021_Jul_01_1343,toilet,2021.1.3,99.88642910256412,
0,0,-4,4,0.97,,,,,1,0,1,0,1,30,86,2,,,,,,,,,,,,,,,,,,,,,,,518.5554526000051,None,518.5554526000051,None,518.0552086000098,None,f,0.6850272000301629,518.5554526000051,None,,,,,,,d,001,2021_Jul_01_1343,toilet,2021.1.3,99.88642910256412,
180,180,-4,4,1.0,,,,,1,0,1,0,1,31,87,31,,,,,,,,,,,,,,,,,,,,,,,520.2465958999237,None,520.2465958999237,None,519.7462533999933,None,f,1.0098111999686807,520.2465958999237,None,,,,,,,d,001,2021_Jul_01_1343,toilet,2021.1.3,99.88642910256412,
180,180,-4,4,0.97,,,,,1,0,1,0,1,32,88,30,,,,,,,,,,,,,,,,,,,,,,,522.257955799927,None,522.257955799927,None,521.7576146000065,None,f,0.5344976999331266,522.257955799927,None,,,,,,,d,001,2021_Jul_01_1343,toilet,2021.1.3,99.88642910256412,
0,180,4,-4,0.97,,,,,1,0,1,0,1,33,89,23,,,,,,,,,,,,,,,,,,,,,,,523.7990244999528,None,523.7990244999528,None,523.2986611999804,None,j,1.3616508000995964,523.7990244999528,None,,,,,,,d,001,2021_Jul_01_1343,toilet,2021.1.3,99.88642910256412,
0,180,4,-4,1.06,,,,,1,0,1,0,1,34,90,26,,,,,,,,,,,,,,,,,,,,,,,526.1706056999974,None,526.1706056999974,None,525.6702979999827,None,f,1.182053199969232,526.1706056999974,None,,,,,,,d,001,2021_Jul_01_1343,toilet,2021.1.3,99.88642910256412,
0,180,4,-4,1.15,,,,,1,0,1,0,1,35,91,27,,,,,,,,,,,,,,,,,,,,,,,528.3520828000037,None,528.3520828000037,None,527.8617519999389,None,f,0.6965022999793291,528.3520828000037,None,,,,,,,d,001,2021_Jul_01_1343,toilet,2021.1.3,99.88642910256412,
180,180,4,-4,1.03,,,,,1,0,1,0,1,36,92,39,,,,,,,,,,,,,,,,,,,,,,,530.0632387999212,None,530.0632387999212,None,529.562903999933,None,f,1.049235099926591,530.0632387999212,None,,,,,,,d,001,2021_Jul_01_1343,toilet,2021.1.3,99.88642910256412,
0,0,-4,4,1.15,,,,,1,0,1,0,1,37,93,6,,,,,,,,,,,,,,,,,,,,,,,532.12467499997,None,532.12467499997,None,531.6243054999504,None,j,0.5077037999872118,532.12467499997,None,,,,,,,d,001,2021_Jul_01_1343,toilet,2021.1.3,99.88642910256412,
0,0,-4,4,1.0,,,,,1,0,1,0,1,38,94,3,,,,,,,,,,,,,,,,,,,,,,,533.6456629999448,None,533.6456629999448,None,533.1453350000083,None,f,0.8910135999321938,533.6456629999448,None,,,,,,,d,001,2021_Jul_01_1343,toilet,2021.1.3,99.88642910256412,
180,180,4,-4,0.85,,,,,1,0,1,0,1,39,95,35,,,,,,,,,,,,,,,,,,,,,,,535.5369488999713,None,535.5369488999713,None,535.0366179000121,None,j,0.4234668000135571,535.5369488999713,None,,,,,,,d,001,2021_Jul_01_1343,toilet,2021.1.3,99.88642910256412,
0,0,4,-4,1.03,,,,,1,0,1,0,1,40,96,11,,,,,,,,,,,,,,,,,,,,,,,536.9779218999902,None,536.9779218999902,None,536.4775873000035,None,f,0.7746092000743374,536.9779218999902,None,,,,,,,d,001,2021_Jul_01_1343,toilet,2021.1.3,99.88642910256412,
180,0,4,-4,0.94,,,,,1,0,1,0,1,41,97,50,,,,,,,,,,,,,,,,,,,,,,,538.769171699998,None,538.769171699998,None,538.2687967999373,None,j,0.4392221999587491,538.769171699998,None,,,,,,,d,001,2021_Jul_01_1343,toilet,2021.1.3,99.88642910256412,
0,180,4,-4,0.94,,,,,1,0,1,0,1,42,98,22,,,,,,,,,,,,,,,,,,,,,,,540.2101181999315,None,540.2101181999315,None,539.7098368000006,None,j,0.8703810999868438,540.2101181999315,None,,,,,,,d,001,2021_Jul_01_1343,toilet,2021.1.3,99.88642910256412,
180,0,4,-4,0.85,,,,,1,0,1,0,1,43,99,49,,,,,,,,,,,,,,,,,,,,,,,542.0813816000009,None,542.0813816000009,None,541.5810534999473,None,j,0.5030854999786243,542.0813816000009,None,,,,,,,d,001,2021_Jul_01_1343,toilet,2021.1.3,99.88642910256412,
180,0,-4,4,1.0,,,,,1,0,1,0,1,44,100,45,,,,,,,,,,,,,,,,,,,,,,,543.5924058000091,None,543.5924058000091,None,543.0920673999935,None,j,1.5999851999804378,543.5924058000091,None,,,,,,,d,001,2021_Jul_01_1343,toilet,2021.1.3,99.88642910256412,
0,0,-4,4,1.06,,,,,1,0,1,0,1,45,101,5,,,,,,,,,,,,,,,,,,,,,,,546.1941697999137,None,546.1941697999137,None,545.6938319999026,None,j,1.0623105999547988,546.1941697999137,None,,,,,,,d,001,2021_Jul_01_1343,toilet,2021.1.3,99.88642910256412,
180,180,4,-4,1.06,,,,,1,0,1,0,1,46,102,40,,,,,,,,,,,,,,,,,,,,,,,548.2655731999548,None,548.2655731999548,None,547.7652309999103,None,f,0.6867359000025317,548.2655731999548,None,,,,,,,d,001,2021_Jul_01_1343,toilet,2021.1.3,99.88642910256412,
180,180,4,-4,0.97,,,,,1,0,1,0,1,47,103,37,,,,,,,,,,,,,,,,,,,,,,,549.9567136999685,None,549.9567136999685,None,549.4563786999788,None,j,1.5237826000666246,549.9567136999685,None,,,,,,,d,001,2021_Jul_01_1343,toilet,2021.1.3,99.88642910256412,
0,0,4,-4,1.15,,,,,1,0,1,0,1,48,104,13,,,,,,,,,,,,,,,,,,,,,,,552.4984395999927,None,552.4984395999927,None,551.9981008999748,None,f,0.8700455999933183,552.4984395999927,None,,,,,,,d,001,2021_Jul_01_1343,toilet,2021.1.3,99.88642910256412,
180,0,4,-4,1.03,,,,,1,0,1,0,1,49,105,53,,,,,,,,,,,,,,,,,,,,,,,554.3797953999601,None,554.3797953999601,None,553.8793739000103,None,f,0.892683699959889,554.3797953999601,None,,,,,,,d,001,2021_Jul_01_1343,toilet,2021.1.3,99.88642910256412,
0,180,4,-4,1.0,,,,,1,0,1,0,1,50,106,24,,,,,,,,,,,,,,,,,,,,,,,556.2810007999651,None,556.2810007999651,None,555.7806560999015,None,j,1.151459899963811,556.2810007999651,None,,,,,,,d,001,2021_Jul_01_1343,toilet,2021.1.3,99.88642910256412,
180,180,4,-4,0.94,,,,,1,0,1,0,1,51,107,36,,,,,,,,,,,,,,,,,,,,,,,558.4424660999794,None,558.4424660999794,None,557.9421222999226,None,j,0.4460471000056714,558.4424660999794,None,,,,,,,d,001,2021_Jul_01_1343,toilet,2021.1.3,99.88642910256412,
180,180,-4,4,1.15,,,,,1,0,1,0,1,52,108,34,,,,,,,,,,,,,,,,,,,,,,,559.9134683000157,None,559.9134683000157,None,559.4131187999155,None,j,0.4311343999579549,559.9134683000157,None,,,,,,,d,001,2021_Jul_01_1343,toilet,2021.1.3,99.88642910256412,
180,180,4,-4,1.15,,,,,1,0,1,0,1,53,109,41,,,,,,,,,,,,,,,,,,,,,,,561.3545059999451,None,561.3545059999451,None,560.8541105999611,None,f,0.49391019996255636,561.3545059999451,None,,,,,,,d,001,2021_Jul_01_1343,toilet,2021.1.3,99.88642910256412,
180,0,4,-4,1.0,,,,,1,0,1,0,1,54,110,52,,,,,,,,,,,,,,,,,,,,,,,562.8654541999567,None,562.8654541999567,None,562.3651190999663,None,f,1.0469251999165863,562.8654541999567,None,,,,,,,d,001,2021_Jul_01_1343,toilet,2021.1.3,99.88642910256412,
0,0,4,-4,0.94,,,,,1,0,1,0,1,55,111,8,,,,,,,,,,,,,,,,,,,,,,,564.9168461000081,None,564.9168461000081,None,564.4165065999841,None,j,0.5476708000060171,564.9168461000081,None,,,,,,,d,001,2021_Jul_01_1343,toilet,2021.1.3,99.88642910256412,
,,,,,,,,,1,0,1,0,,,,,,,,,,,,,,,,,,,,,,,,,,,,,,,,,,,,,565.4872701999266,None,space,1.3052101999055594,565.4872701999266,None,d,001,2021_Jul_01_1343,toilet,2021.1.3,99.88642910256412,
180,180,4,-4,0.94,,,,,2,0,2,0,0,0,0,36,,,,,,,,,,,,,,,,,566.8081331999274,None,space,1.1362005999544635,566.8081331999274,None,568.9596629999578,None,568.9596629999578,None,568.4593297999818,None,j,0.7287243000464514,568.9596629999578,None,,,,,,,d,001,2021_Jul_01_1343,toilet,2021.1.3,99.88642910256412,
0,180,-4,4,1.06,,,,,2,0,2,0,0,1,1,19,,,,,,,,,,,,,,,,,,,,,,,570.6907644999446,None,570.6907644999446,None,570.1904207000043,None,j,0.5655983000760898,570.6907644999446,None,,,,,,,d,001,2021_Jul_01_1343,toilet,2021.1.3,99.88642910256412,
180,180,4,-4,0.85,,,,,2,0,2,0,0,2,2,35,,,,,,,,,,,,,,,,,,,,,,,572.2618296999717,None,572.2618296999717,None,571.7614838000154,None,j,0.43473020009696484,572.2618296999717,None,,,,,,,d,001,2021_Jul_01_1343,toilet,2021.1.3,99.88642910256412,
180,0,4,-4,1.0,,,,,2,0,2,0,0,3,3,52,,,,,,,,,,,,,,,,,,,,,,,573.7128084999276,None,573.7128084999276,None,573.2124694999075,None,f,0.8395863999612629,573.7128084999276,None,,,,,,,d,001,2021_Jul_01_1343,toilet,2021.1.3,99.88642910256412,
0,0,-4,4,0.85,,,,,2,0,2,0,0,4,4,0,,,,,,,,,,,,,,,,,,,,,,,575.5642402999802,None,575.5642402999802,None,575.0638073999435,None,f,0.460033499985002,575.5642402999802,None,,,,,,,d,001,2021_Jul_01_1343,toilet,2021.1.3,99.88642910256412,
180,0,-4,4,0.97,,,,,2,0,2,0,0,5,5,44,,,,,,,,,,,,,,,,,,,,,,,577.0250475999201,None,577.0250475999201,None,576.524785000016,None,f,0.8072498999536037,577.0250475999201,None,,,,,,,d,001,2021_Jul_01_1343,toilet,2021.1.3,99.88642910256412,
0,0,4,-4,0.97,,,,,2,0,2,0,0,6,6,9,,,,,,,,,,,,,,,,,,,,,,,578.8362781999167,None,578.8362781999167,None,578.3359369999962,None,f,0.6600776000414044,578.8362781999167,None,,,,,,,d,001,2021_Jul_01_1343,toilet,2021.1.3,99.88642910256412,
0,180,4,-4,1.06,,,,,2,0,2,0,0,7,7,26,,,,,,,,,,,,,,,,,,,,,,,580.4973985999823,None,580.4973985999823,None,579.997058799956,None,f,0.727034299983643,580.4973985999823,None,,,,,,,d,001,2021_Jul_01_1343,toilet,2021.1.3,99.88642910256412,
0,0,-4,4,1.15,,,,,2,0,2,0,0,8,8,6,,,,,,,,,,,,,,,,,,,,,,,582.2386627999367,None,582.2386627999367,None,581.7382368999533,None,j,0.47372180002275854,582.2386627999367,None,,,,,,,d,001,2021_Jul_01_1343,toilet,2021.1.3,99.88642910256412,
180,180,4,-4,1.03,,,,,2,0,2,0,0,9,9,39,,,,,,,,,,,,,,,,,,,,,,,583.7196655999869,None,583.7196655999869,None,583.2193296999903,None,f,0.6886375999310985,583.7196655999869,None,,,,,,,d,001,2021_Jul_01_1343,toilet,2021.1.3,99.88642910256412,
0,180,4,-4,1.0,,,,,2,0,2,0,0,10,10,24,,,,,,,,,,,,,,,,,,,,,,,585.4107299000025,None,585.4107299000025,None,584.9103906999808,None,j,0.7576637000311166,585.4107299000025,None,,,,,,,d,001,2021_Jul_01_1343,toilet,2021.1.3,99.88642910256412,
0,0,-4,4,1.06,,,,,2,0,2,0,0,11,11,5,,,,,,,,,,,,,,,,,,,,,,,587.1719199999934,None,587.1719199999934,None,586.6715855000075,None,j,0.5004845000803471,587.1719199999934,None,,,,,,,d,001,2021_Jul_01_1343,toilet,2021.1.3,99.88642910256412,
180,180,4,-4,1.06,,,,,2,0,2,0,0,12,12,40,,,,,,,,,,,,,,,,,,,,,,,588.6829459000146,None,588.6829459000146,None,588.1826158999465,None,f,0.5574207999743521,588.6829459000146,None,,,,,,,d,001,2021_Jul_01_1343,toilet,2021.1.3,99.88642910256412,
0,180,4,-4,1.15,,,,,2,0,2,0,0,13,13,27,,,,,,,,,,,,,,,,,,,,,,,590.2440382000059,None,590.2440382000059,None,589.7437381999334,None,f,0.5003602999495342,590.2440382000059,None,,,,,,,d,001,2021_Jul_01_1343,toilet,2021.1.3,99.88642910256412,
180,0,4,-4,1.03,,,,,2,0,2,0,0,14,14,53,,,,,,,,,,,,,,,,,,,,,,,591.7550249999622,None,591.7550249999622,None,591.2547574999044,None,f,1.1333662999095395,591.7550249999622,None,,,,,,,d,001,2021_Jul_01_1343,toilet,2021.1.3,99.88642910256412,
180,180,4,-4,1.15,,,,,2,0,2,0,0,15,15,41,,,,,,,,,,,,,,,,,,,,,,,593.8964800999966,None,593.8964800999966,None,593.3961393999634,None,f,0.5122048000339419,593.8964800999966,None,,,,,,,d,001,2021_Jul_01_1343,toilet,2021.1.3,99.88642910256412,
180,180,-4,4,1.0,,,,,2,0,2,0,0,16,16,31,,,,,,,,,,,,,,,,,,,,,,,595.4375142999925,None,595.4375142999925,None,594.9371826999122,None,f,1.0349695000331849,595.4375142999925,None,,,,,,,d,001,2021_Jul_01_1343,toilet,2021.1.3,99.88642910256412,
0,180,-4,4,0.94,,,,,2,0,2,0,0,17,17,15,,,,,,,,,,,,,,,,,,,,,,,597.498916799901,None,597.498916799901,None,596.9986781999469,None,f,2.3174189999699593,597.498916799901,None,,,,,,,d,001,2021_Jul_01_1343,toilet,2021.1.3,99.88642910256412,
180,0,-4,4,1.0,,,,,2,0,2,0,0,18,18,45,,,,,,,,,,,,,,,,,,,,,,,600.8211639999645,None,600.8211639999645,None,600.320826399955,None,f,2.179299100069329,600.8211639999645,None,,,,,,,d,001,2021_Jul_01_1343,toilet,2021.1.3,99.88642910256412,
180,180,-4,4,1.03,,,,,2,0,2,0,0,19,19,32,,,,,,,,,,,,,,,,,,,,,,,604.0133471000008,None,604.0133471000008,None,603.5129844999174,None,j,0.635113500058651,604.0133471000008,None,,,,,,,d,001,2021_Jul_01_1343,toilet,2021.1.3,99.88642910256412,
180,180,-4,4,0.94,,,,,2,0,2,0,0,20,20,29,,,,,,,,,,,,,,,,,,,,,,,605.6744871999836,None,605.6744871999836,None,605.1741150999442,None,f,0.605807299958542,605.6744871999836,None,,,,,,,d,001,2021_Jul_01_1343,toilet,2021.1.3,99.88642910256412,
180,180,-4,4,1.06,,,,,2,0,2,0,0,21,21,33,,,,,,,,,,,,,,,,,,,,,,,607.2855419999687,None,607.2855419999687,None,606.7852049999638,None,j,0.48291430005338043,607.2855419999687,None,,,,,,,d,001,2021_Jul_01_1343,toilet,2021.1.3,99.88642910256412,
0,0,4,-4,1.03,,,,,2,0,2,0,0,22,22,11,,,,,,,,,,,,,,,,,,,,,,,608.7765538999811,None,608.7765538999811,None,608.2762192999944,None,f,0.7518795999931172,608.7765538999811,None,,,,,,,d,001,2021_Jul_01_1343,toilet,2021.1.3,99.88642910256412,
180,0,-4,4,0.94,,,,,2,0,2,0,0,23,23,43,,,,,,,,,,,,,,,,,,,,,,,610.537746099988,None,610.537746099988,None,610.0374099999899,None,f,1.0385447000153363,610.537746099988,None,,,,,,,d,001,2021_Jul_01_1343,toilet,2021.1.3,99.88642910256412,
0,180,-4,4,1.0,,,,,2,0,2,0,0,24,24,17,,,,,,,,,,,,,,,,,,,,,,,612.579212600016,None,612.579212600016,None,612.0787894999376,None,f,1.093087900080718,612.579212600016,None,,,,,,,d,001,2021_Jul_01_1343,toilet,2021.1.3,99.88642910256412,
180,180,4,-4,1.0,,,,,2,0,2,0,0,25,25,38,,,,,,,,,,,,,,,,,,,,,,,614.6906049000099,None,614.6906049000099,None,614.190217699972,None,j,0.9177041000220925,614.6906049000099,None,,,,,,,d,001,2021_Jul_01_1343,toilet,2021.1.3,99.88642910256412,
0,180,4,-4,0.85,,,,,2,0,2,0,0,26,26,21,,,,,,,,,,,,,,,,,,,,,,,616.6118597999448,None,616.6118597999448,None,616.1115230999421,None,j,0.46856860001571476,616.6118597999448,None,,,,,,,d,001,2021_Jul_01_1343,toilet,2021.1.3,99.88642910256412,
0,0,-4,4,1.0,,,,,2,0,2,0,0,27,27,3,,,,,,,,,,,,,,,,,,,,,,,618.0929525999818,None,618.0929525999818,None,617.5925236999756,None,f,0.635475599905476,618.0929525999818,None,,,,,,,d,001,2021_Jul_01_1343,toilet,2021.1.3,99.88642910256412,
180,0,4,-4,0.85,,,,,2,0,2,0,0,28,28,49,,,,,,,,,,,,,,,,,,,,,,,619.7440687000053,None,619.7440687000053,None,619.2436420999002,None,j,0.42436360009014606,619.7440687000053,None,,,,,,,d,001,2021_Jul_01_1343,toilet,2021.1.3,99.88642910256412,
180,180,-4,4,1.15,,,,,2,0,2,0,0,29,29,34,,,,,,,,,,,,,,,,,,,,,,,621.1849986999296,None,621.1849986999296,None,620.6846559999976,None,j,0.3913571999873966,621.1849986999296,None,,,,,,,d,001,2021_Jul_01_1343,toilet,2021.1.3,99.88642910256412,
0,180,4,-4,1.03,,,,,2,0,2,0,0,30,30,25,,,,,,,,,,,,,,,,,,,,,,,622.5758979999227,None,622.5758979999227,None,622.075560899917,None,f,0.8724868999561295,622.5758979999227,None,,,,,,,d,001,2021_Jul_01_1343,toilet,2021.1.3,99.88642910256412,
180,0,4,-4,0.94,,,,,2,0,2,0,0,31,31,50,,,,,,,,,,,,,,,,,,,,,,,624.4571730999742,None,624.4571730999742,None,623.9568394999951,None,j,0.4152612000470981,624.4571730999742,None,,,,,,,d,001,2021_Jul_01_1343,toilet,2021.1.3,99.88642910256412,
0,180,-4,4,0.85,,,,,2,0,2,0,0,32,32,14,,,,,,,,,,,,,,,,,,,,,,,625.8881424999563,None,625.8881424999563,None,625.3878072999651,None,f,0.45615819992963225,625.8881424999563,None,,,,,,,d,001,2021_Jul_01_1343,toilet,2021.1.3,99.88642910256412,
180,0,-4,4,0.85,,,,,2,0,2,0,0,33,33,42,,,,,,,,,,,,,,,,,,,,,,,627.3491699999431,None,627.3491699999431,None,626.8488263000036,None,f,0.4033189000329003,627.3491699999431,None,,,,,,,d,001,2021_Jul_01_1343,toilet,2021.1.3,99.88642910256412,
0,0,4,-4,0.94,,,,,2,0,2,0,0,34,34,8,,,,,,,,,,,,,,,,,,,,,,,628.7700956999324,None,628.7700956999324,None,628.269835999934,None,j,0.5022033000132069,628.7700956999324,None,,,,,,,d,001,2021_Jul_01_1343,toilet,2021.1.3,99.88642910256412,
180,0,4,-4,1.06,,,,,2,0,2,0,0,35,35,54,,,,,,,,,,,,,,,,,,,,,,,630.2811150999041,None,630.2811150999041,None,629.7807781000156,None,f,0.8953482999932021,630.2811150999041,None,,,,,,,d,001,2021_Jul_01_1343,toilet,2021.1.3,99.88642910256412,
0,0,-4,4,0.97,,,,,2,0,2,0,0,36,36,2,,,,,,,,,,,,,,,,,,,,,,,632.2024237000151,None,632.2024237000151,None,631.702080899966,None,f,0.7020302000455558,632.2024237000151,None,,,,,,,d,001,2021_Jul_01_1343,toilet,2021.1.3,99.88642910256412,
0,180,-4,4,1.03,,,,,2,0,2,0,0,37,37,18,,,,,,,,,,,,,,,,,,,,,,,633.9135784999235,None,633.9135784999235,None,633.4132419999223,None,j,0.5269284000387415,633.9135784999235,None,,,,,,,d,001,2021_Jul_01_1343,toilet,2021.1.3,99.88642910256412,
0,180,-4,4,0.97,,,,,2,0,2,0,0,38,38,16,,,,,,,,,,,,,,,,,,,,,,,635.4546615999425,None,635.4546615999425,None,634.9542812999571,None,f,0.6495893000392243,635.4546615999425,None,,,,,,,d,001,2021_Jul_01_1343,toilet,2021.1.3,99.88642910256412,
0,0,4,-4,1.0,,,,,2,0,2,0,0,39,39,10,,,,,,,,,,,,,,,,,,,,,,,637.1057446999475,None,637.1057446999475,None,636.6053762999363,None,f,0.6307322999928147,637.1057446999475,None,,,,,,,d,001,2021_Jul_01_1343,toilet,2021.1.3,99.88642910256412,
180,180,-4,4,0.85,,,,,2,0,2,0,0,40,40,28,,,,,,,,,,,,,,,,,,,,,,,638.7368448999478,None,638.7368448999478,None,638.2365147999953,None,f,0.45552419999148697,638.7368448999478,None,,,,,,,d,001,2021_Jul_01_1343,toilet,2021.1.3,99.88642910256412,
0,180,4,-4,0.94,,,,,2,0,2,0,0,41,41,22,,,,,,,,,,,,,,,,,,,,,,,640.1978332999861,None,640.1978332999861,None,639.6975079999538,None,j,0.5466132999863476,640.1978332999861,None,,,,,,,d,001,2021_Jul_01_1343,toilet,2021.1.3,99.88642910256412,
0,0,4,-4,1.06,,,,,2,0,2,0,0,42,42,12,,,,,,,,,,,,,,,,,,,,,,,641.7589691999601,None,641.7589691999601,None,641.2585490999045,None,f,0.6493993999902159,641.7589691999601,None,,,,,,,d,001,2021_Jul_01_1343,toilet,2021.1.3,99.88642910256412,
180,0,4,-4,1.15,,,,,2,0,2,0,0,43,43,55,,,,,,,,,,,,,,,,,,,,,,,643.4200150999241,None,643.4200150999241,None,642.9197152999695,None,f,0.4602107999380678,643.4200150999241,None,,,,,,,d,001,2021_Jul_01_1343,toilet,2021.1.3,99.88642910256412,
0,0,-4,4,0.94,,,,,2,0,2,0,0,44,44,1,,,,,,,,,,,,,,,,,,,,,,,644.8810062999837,None,644.8810062999837,None,644.3806750999065,None,f,0.48729860002640635,644.8810062999837,None,,,,,,,d,001,2021_Jul_01_1343,toilet,2021.1.3,99.88642910256412,
0,180,-4,4,1.15,,,,,2,0,2,0,0,45,45,20,,,,,,,,,,,,,,,,,,,,,,,646.3720168999862,None,646.3720168999862,None,645.8716818999965,None,j,0.388417600071989,646.3720168999862,None,,,,,,,d,001,2021_Jul_01_1343,toilet,2021.1.3,99.88642910256412,
0,0,-4,4,1.03,,,,,2,0,2,0,0,46,46,4,,,,,,,,,,,,,,,,,,,,,,,647.7729619999882,None,647.7729619999882,None,647.2726257999893,None,j,0.6353729000547901,647.7729619999882,None,,,,,,,d,001,2021_Jul_01_1343,toilet,2021.1.3,99.88642910256412,
0,0,4,-4,1.15,,,,,2,0,2,0,0,47,47,13,,,,,,,,,,,,,,,,,,,,,,,649.4240885999752,None,649.4240885999752,None,648.9237544999924,None,f,0.48823020001873374,649.4240885999752,None,,,,,,,d,001,2021_Jul_01_1343,toilet,2021.1.3,99.88642910256412,
180,0,-4,4,1.06,,,,,2,0,2,0,0,48,48,47,,,,,,,,,,,,,,,,,,,,,,,650.9250973999733,None,650.9250973999733,None,650.4248416000046,None,j,0.8591514000436291,650.9250973999733,None,,,,,,,d,001,2021_Jul_01_1343,toilet,2021.1.3,99.88642910256412,
180,0,-4,4,1.15,,,,,2,0,2,0,0,49,49,48,,,,,,,,,,,,,,,,,,,,,,,652.7863557999954,None,652.7863557999954,None,652.2860208000056,None,j,0.5819790000095963,652.7863557999954,None,,,,,,,d,001,2021_Jul_01_1343,toilet,2021.1.3,99.88642910256412,
0,0,4,-4,0.85,,,,,2,0,2,0,0,50,50,7,,,,,,,,,,,,,,,,,,,,,,,654.3774362999247,None,654.3774362999247,None,653.8771003999282,None,j,0.4469756999751553,654.3774362999247,None,,,,,,,d,001,2021_Jul_01_1343,toilet,2021.1.3,99.88642910256412,
180,180,-4,4,0.97,,,,,2,0,2,0,0,51,51,30,,,,,,,,,,,,,,,,,,,,,,,655.8484378999565,None,655.8484378999565,None,655.3480949999066,None,f,0.4639860999304801,655.8484378999565,None,,,,,,,d,001,2021_Jul_01_1343,toilet,2021.1.3,99.88642910256412,
180,0,4,-4,0.97,,,,,2,0,2,0,0,52,52,51,,,,,,,,,,,,,,,,,,,,,,,657.339477499947,None,657.339477499947,None,656.839115299983,None,j,0.5088567000348121,657.339477499947,None,,,,,,,d,001,2021_Jul_01_1343,toilet,2021.1.3,99.88642910256412,
180,180,4,-4,0.97,,,,,2,0,2,0,0,53,53,37,,,,,,,,,,,,,,,,,,,,,,,658.8604780999012,None,658.8604780999012,None,658.3601368999807,None,f,0.7957482000347227,658.8604780999012,None,,,,,,,d,001,2021_Jul_01_1343,toilet,2021.1.3,99.88642910256412,
180,0,-4,4,1.03,,,,,2,0,2,0,0,54,54,46,,,,,,,,,,,,,,,,,,,,,,,660.661692099995,None,660.661692099995,None,660.1613538999809,None,j,0.6906935999868438,660.661692099995,None,,,,,,,d,001,2021_Jul_01_1343,toilet,2021.1.3,99.88642910256412,
0,180,4,-4,0.97,,,,,2,0,2,0,0,55,55,23,,,,,,,,,,,,,,,,,,,,,,,662.3528408999555,None,662.3528408999555,None,661.852551799966,None,j,0.5994963999837637,662.3528408999555,None,,,,,,,d,001,2021_Jul_01_1343,toilet,2021.1.3,99.88642910256412,
0,0,-4,4,1.03,,,,,2,0,2,0,1,0,56,4,,,,,,,,,,,,,,,,,,,,,,,663.9539922999684,None,663.9539922999684,None,663.4535973999882,None,j,0.6782677000155672,663.9539922999684,None,,,,,,,d,001,2021_Jul_01_1343,toilet,2021.1.3,99.88642910256412,
180,180,4,-4,1.0,,,,,2,0,2,0,1,1,57,38,,,,,,,,,,,,,,,,,,,,,,,665.6351552999113,None,665.6351552999113,None,665.1347415999044,None,f,0.8211211999878287,665.6351552999113,None,,,,,,,d,001,2021_Jul_01_1343,toilet,2021.1.3,99.88642910256412,
0,180,4,-4,1.06,,,,,2,0,2,0,1,2,58,26,,,,,,,,,,,,,,,,,,,,,,,667.4562967999373,None,667.4562967999373,None,666.9559624999529,None,f,0.9359149999218062,667.4562967999373,None,,,,,,,d,001,2021_Jul_01_1343,toilet,2021.1.3,99.88642910256412,
0,0,-4,4,1.0,,,,,2,0,2,0,1,3,59,3,,,,,,,,,,,,,,,,,,,,,,,669.3976077999687,None,669.3976077999687,None,668.897268599947,None,f,0.6267981000710279,669.3976077999687,None,,,,,,,d,001,2021_Jul_01_1343,toilet,2021.1.3,99.88642910256412,
0,0,-4,4,1.15,,,,,2,0,2,0,1,4,60,6,,,,,,,,,,,,,,,,,,,,,,,671.0387217999669,None,671.0387217999669,None,670.5384675000096,None,j,0.409609500085935,671.0387217999669,None,,,,,,,d,001,2021_Jul_01_1343,toilet,2021.1.3,99.88642910256412,
0,180,4,-4,1.15,,,,,2,0,2,0,1,5,61,27,,,,,,,,,,,,,,,,,,,,,,,672.4597694999538,None,672.4597694999538,None,671.9594194999663,None,f,0.4284532000310719,672.4597694999538,None,,,,,,,d,001,2021_Jul_01_1343,toilet,2021.1.3,99.88642910256412,
0,180,-4,4,0.97,,,,,2,0,2,0,1,6,62,16,,,,,,,,,,,,,,,,,,,,,,,673.8906556000002,None,673.8906556000002,None,673.3903112999396,None,f,1.7817627000622451,673.8906556000002,None,,,,,,,d,001,2021_Jul_01_1343,toilet,2021.1.3,99.88642910256412,
180,0,4,-4,0.97,,,,,2,0,2,0,1,7,63,51,,,,,,,,,,,,,,,,,,,,,,,676.6825426999712,None,676.6825426999712,None,676.1822066999739,None,j,0.9257076000794768,676.6825426999712,None,,,,,,,d,001,2021_Jul_01_1343,toilet,2021.1.3,99.88642910256412,
180,180,-4,4,0.85,,,,,2,0,2,0,1,8,64,28,,,,,,,,,,,,,,,,,,,,,,,678.6138849999988,None,678.6138849999988,None,678.1135967998998,None,f,0.4825501999584958,678.6138849999988,None,,,,,,,d,001,2021_Jul_01_1343,toilet,2021.1.3,99.88642910256412,
0,0,4,-4,0.97,,,,,2,0,2,0,1,9,65,9,,,,,,,,,,,,,,,,,,,,,,,680.1048792999936,None,680.1048792999936,None,679.604613799951,None,j,0.6553324999986216,680.1048792999936,None,,,,,,,d,001,2021_Jul_01_1343,toilet,2021.1.3,99.88642910256412,
0,0,4,-4,1.03,,,,,2,0,2,0,1,10,66,11,,,,,,,,,,,,,,,,,,,,,,,681.7659840999404,None,681.7659840999404,None,681.2656490999507,None,f,0.41825599991716444,681.7659840999404,None,,,,,,,d,001,2021_Jul_01_1343,toilet,2021.1.3,99.88642910256412,
180,0,4,-4,1.0,,,,,2,0,2,0,1,11,67,52,,,,,,,,,,,,,,,,,,,,,,,683.1869437999558,None,683.1869437999558,None,682.6866082999622,None,j,0.9013617999153212,683.1869437999558,None,,,,,,,d,001,2021_Jul_01_1343,toilet,2021.1.3,99.88642910256412,
180,0,4,-4,0.94,,,,,2,0,2,0,1,12,68,50,,,,,,,,,,,,,,,,,,,,,,,685.0982390999561,None,685.0982390999561,None,684.5979002999375,None,j,0.4779782999539748,685.0982390999561,None,,,,,,,d,001,2021_Jul_01_1343,toilet,2021.1.3,99.88642910256412,
0,180,4,-4,0.97,,,,,2,0,2,0,1,13,69,23,,,,,,,,,,,,,,,,,,,,,,,686.5793149999809,None,686.5793149999809,None,686.0790049999487,None,f,0.6129945999709889,686.5793149999809,None,,,,,,,d,001,2021_Jul_01_1343,toilet,2021.1.3,99.88642910256412,
0,180,-4,4,1.03,,,,,2,0,2,0,1,14,70,18,,,,,,,,,,,,,,,,,,,,,,,688.2103466999251,None,688.2103466999251,None,687.7100106999278,None,j,0.42187810002360493,688.2103466999251,None,,,,,,,d,001,2021_Jul_01_1343,toilet,2021.1.3,99.88642910256412,
0,180,4,-4,1.03,,,,,2,0,2,0,1,15,71,25,,,,,,,,,,,,,,,,,,,,,,,689.6413149000145,None,689.6413149000145,None,689.1409811999183,None,f,0.5429866999620572,689.6413149000145,None,,,,,,,d,001,2021_Jul_01_1343,toilet,2021.1.3,99.88642910256412,
0,180,4,-4,1.0,,,,,2,0,2,0,1,16,72,24,,,,,,,,,,,,,,,,,,,,,,,691.2023728999775,None,691.2023728999775,None,690.7020400000038,None,f,0.6939374000066891,691.2023728999775,None,,,,,,,d,001,2021_Jul_01_1343,toilet,2021.1.3,99.88642910256412,
0,0,-4,4,1.06,,,,,2,0,2,0,1,17,73,5,,,,,,,,,,,,,,,,,,,,,,,692.9036061000079,None,692.9036061000079,None,692.4032074999996,None,j,0.4647377000655979,692.9036061000079,None,,,,,,,d,001,2021_Jul_01_1343,toilet,2021.1.3,99.88642910256412,
180,0,-4,4,1.15,,,,,2,0,2,0,1,18,74,48,,,,,,,,,,,,,,,,,,,,,,,694.3846076999325,None,694.3846076999325,None,693.8842697999207,None,j,0.5038320999592543,694.3846076999325,None,,,,,,,d,001,2021_Jul_01_1343,toilet,2021.1.3,99.88642910256412,
0,180,-4,4,1.0,,,,,2,0,2,0,1,19,75,17,,,,,,,,,,,,,,,,,,,,,,,695.905563200009,None,695.905563200009,None,695.4052248999942,None,j,0.8546528000151739,695.905563200009,None,,,,,,,d,001,2021_Jul_01_1343,toilet,2021.1.3,99.88642910256412,
180,180,-4,4,1.03,,,,,2,0,2,0,1,20,76,32,,,,,,,,,,,,,,,,,,,,,,,697.766824399936,None,697.766824399936,None,697.2664819000056,None,j,0.9455812999513,697.766824399936,None,,,,,,,d,001,2021_Jul_01_1343,toilet,2021.1.3,99.88642910256412,
0,0,-4,4,0.85,,,,,2,0,2,0,1,21,77,0,,,,,,,,,,,,,,,,,,,,,,,699.7381517000031,None,699.7381517000031,None,699.2378147999989,None,f,0.4462292999960482,699.7381517000031,None,,,,,,,d,001,2021_Jul_01_1343,toilet,2021.1.3,99.88642910256412,
180,0,4,-4,0.85,,,,,2,0,2,0,1,22,78,49,,,,,,,,,,,,,,,,,,,,,,,701.2091843999224,None,701.2091843999224,None,700.7088095999788,None,j,0.41524529992602766,701.2091843999224,None,,,,,,,d,001,2021_Jul_01_1343,toilet,2021.1.3,99.88642910256412,
180,0,-4,4,1.0,,,,,2,0,2,0,1,23,79,45,,,,,,,,,,,,,,,,,,,,,,,702.6501310999738,None,702.6501310999738,None,702.1498028999195,None,f,0.6541714000049978,702.6501310999738,None,,,,,,,d,001,2021_Jul_01_1343,toilet,2021.1.3,99.88642910256412,
0,0,-4,4,0.97,,,,,2,0,2,0,1,24,80,2,,,,,,,,,,,,,,,,,,,,,,,704.3112537999405,None,704.3112537999405,None,703.810914899921,None,f,0.5289361999602988,704.3112537999405,None,,,,,,,d,001,2021_Jul_01_1343,toilet,2021.1.3,99.88642910256412,
180,180,-4,4,0.97,,,,,2,0,2,0,1,25,81,30,,,,,,,,,,,,,,,,,,,,,,,705.8422933999682,None,705.8422933999682,None,705.3419549999526,None,f,0.4539959999965504,705.8422933999682,None,,,,,,,d,001,2021_Jul_01_1343,toilet,2021.1.3,99.88642910256412,
180,180,-4,4,1.15,,,,,2,0,2,0,1,26,82,34,,,,,,,,,,,,,,,,,,,,,,,707.303283499903,None,707.303283499903,None,706.8029364999384,None,j,0.4172418999951333,707.303283499903,None,,,,,,,d,001,2021_Jul_01_1343,toilet,2021.1.3,99.88642910256412,
180,0,-4,4,0.94,,,,,2,0,2,0,1,27,83,43,,,,,,,,,,,,,,,,,,,,,,,708.7443424999947,None,708.7443424999947,None,708.2439496999141,None,f,0.3999549999134615,708.7443424999947,None,,,,,,,d,001,2021_Jul_01_1343,toilet,2021.1.3,99.88642910256412,
0,180,4,-4,0.85,,,,,2,0,2,0,1,28,84,21,,,,,,,,,,,,,,,,,,,,,,,710.1552148999181,None,710.1552148999181,None,709.6548676999519,None,j,0.5089890999952331,710.1552148999181,None,,,,,,,d,001,2021_Jul_01_1343,toilet,2021.1.3,99.88642910256412,
180,180,4,-4,0.97,,,,,2,0,2,0,1,29,85,37,,,,,,,,,,,,,,,,,,,,,,,711.6662386999233,None,711.6662386999233,None,711.1658985000104,None,f,1.318169999984093,711.6662386999233,None,,,,,,,d,001,2021_Jul_01_1343,toilet,2021.1.3,99.88642910256412,
180,0,-4,4,0.85,,,,,2,0,2,0,1,30,86,42,,,,,,,,,,,,,,,,,,,,,,,713.9978216999443,None,713.9978216999443,None,713.4974721999606,None,f,0.42649619991425425,713.9978216999443,None,,,,,,,d,001,2021_Jul_01_1343,toilet,2021.1.3,99.88642910256412,
0,0,4,-4,0.85,,,,,2,0,2,0,1,31,87,7,,,,,,,,,,,,,,,,,,,,,,,715.4387872999068,None,715.4387872999068,None,714.9385289999191,None,j,0.4256132999435067,715.4387872999068,None,,,,,,,d,001,2021_Jul_01_1343,toilet,2021.1.3,99.88642910256412,
180,180,-4,4,0.94,,,,,2,0,2,0,1,32,88,29,,,,,,,,,,,,,,,,,,,,,,,716.8797998999944,None,716.8797998999944,None,716.3795046999585,None,f,0.40842720004729927,716.8797998999944,None,,,,,,,d,001,2021_Jul_01_1343,toilet,2021.1.3,99.88642910256412,
0,0,-4,4,0.94,,,,,2,0,2,0,1,33,89,1,,,,,,,,,,,,,,,,,,,,,,,718.2907350999303,None,718.2907350999303,None,717.790378900012,None,f,0.6454461999237537,718.2907350999303,None,,,,,,,d,001,2021_Jul_01_1343,toilet,2021.1.3,99.88642910256412,
0,0,4,-4,0.94,,,,,2,0,2,0,1,34,90,8,,,,,,,,,,,,,,,,,,,,,,,719.941833699937,None,719.941833699937,None,719.4414985999465,None,j,0.5465723000233993,719.941833699937,None,,,,,,,d,001,2021_Jul_01_1343,toilet,2021.1.3,99.88642910256412,
180,180,4,-4,1.06,,,,,2,0,2,0,1,35,91,40,,,,,,,,,,,,,,,,,,,,,,,721.5128994999686,None,721.5128994999686,None,721.0125642999774,None,f,0.5275142000755295,721.5128994999686,None,,,,,,,d,001,2021_Jul_01_1343,toilet,2021.1.3,99.88642910256412,
0,180,-4,4,1.15,,,,,2,0,2,0,1,36,92,20,,,,,,,,,,,,,,,,,,,,,,,723.0539484999608,None,723.0539484999608,None,722.5536942000035,None,j,0.4904374999459833,723.0539484999608,None,,,,,,,d,001,2021_Jul_01_1343,toilet,2021.1.3,99.88642910256412,
180,0,-4,4,1.03,,,,,2,0,2,0,1,37,93,46,,,,,,,,,,,,,,,,,,,,,,,724.5549594999757,None,724.5549594999757,None,724.0547165999888,None,j,1.3252436000620946,724.5549594999757,None,,,,,,,d,001,2021_Jul_01_1343,toilet,2021.1.3,99.88642910256412,
180,180,4,-4,0.94,,,,,2,0,2,0,1,38,94,36,,,,,,,,,,,,,,,,,,,,,,,726.8865397999762,None,726.8865397999762,None,726.3861987999408,None,j,1.71381540002767,726.8865397999762,None,,,,,,,d,001,2021_Jul_01_1343,toilet,2021.1.3,99.88642910256412,
0,180,4,-4,0.94,,,,,2,0,2,0,1,39,95,22,,,,,,,,,,,,,,,,,,,,,,,729.6183915999718,None,729.6183915999718,None,729.1180484999204,None,j,1.4617524000350386,729.6183915999718,None,,,,,,,d,001,2021_Jul_01_1343,toilet,2021.1.3,99.88642910256412,
180,180,4,-4,0.85,,,,,2,0,2,0,1,40,96,35,,,,,,,,,,,,,,,,,,,,,,,732.0800553999143,None,732.0800553999143,None,731.5797572999727,None,j,0.5841446999693289,732.0800553999143,None,,,,,,,d,001,2021_Jul_01_1343,toilet,2021.1.3,99.88642910256412,
180,0,-4,4,0.97,,,,,2,0,2,0,1,41,97,44,,,,,,,,,,,,,,,,,,,,,,,733.6711325999349,None,733.6711325999349,None,733.1707963999361,None,f,0.6253116999287158,733.6711325999349,None,,,,,,,d,001,2021_Jul_01_1343,toilet,2021.1.3,99.88642910256412,
180,0,-4,4,1.06,,,,,2,0,2,0,1,42,98,47,,,,,,,,,,,,,,,,,,,,,,,735.3222904999275,None,735.3222904999275,None,734.8219696999295,None,j,1.662103500100784,735.3222904999275,None,,,,,,,d,001,2021_Jul_01_1343,toilet,2021.1.3,99.88642910256412,
0,0,4,-4,1.0,,,,,2,0,2,0,1,43,99,10,,,,,,,,,,,,,,,,,,,,,,,737.9941021999111,None,737.9941021999111,None,737.4938207999803,None,f,0.5103173999814317,737.9941021999111,None,,,,,,,d,001,2021_Jul_01_1343,toilet,2021.1.3,99.88642910256412,
180,0,4,-4,1.06,,,,,2,0,2,0,1,44,100,54,,,,,,,,,,,,,,,,,,,,,,,739.5150922999019,None,739.5150922999019,None,739.0147494999692,None,f,0.6213091999525204,739.5150922999019,None,,,,,,,d,001,2021_Jul_01_1343,toilet,2021.1.3,99.88642910256412,
180,180,4,-4,1.15,,,,,2,0,2,0,1,45,101,41,,,,,,,,,,,,,,,,,,,,,,,741.1361922000069,None,741.1361922000069,None,740.635862999945,None,f,0.4400642999680713,741.1361922000069,None,,,,,,,d,001,2021_Jul_01_1343,toilet,2021.1.3,99.88642910256412,
180,180,-4,4,1.0,,,,,2,0,2,0,1,46,102,31,,,,,,,,,,,,,,,,,,,,,,,742.5871759000001,None,742.5871759000001,None,742.0868356999708,None,j,0.47721040004398674,742.5871759000001,None,,,,,,,d,001,2021_Jul_01_1343,toilet,2021.1.3,99.88642910256412,
180,180,-4,4,1.06,,,,,2,0,2,0,1,47,103,33,,,,,,,,,,,,,,,,,,,,,,,744.0882235999452,None,744.0882235999452,None,743.5878566999454,None,j,1.0400222000898793,744.0882235999452,None,,,,,,,d,001,2021_Jul_01_1343,toilet,2021.1.3,99.88642910256412,
0,180,-4,4,0.94,,,,,2,0,2,0,1,48,104,15,,,,,,,,,,,,,,,,,,,,,,,746.139671199955,None,746.139671199955,None,745.6392485999968,None,f,0.5725660999305546,746.139671199955,None,,,,,,,d,001,2021_Jul_01_1343,toilet,2021.1.3,99.88642910256412,
0,0,4,-4,1.06,,,,,2,0,2,0,1,49,105,12,,,,,,,,,,,,,,,,,,,,,,,747.7206444999902,None,747.7206444999902,None,747.2203083999921,None,f,0.4795165000250563,747.7206444999902,None,,,,,,,d,001,2021_Jul_01_1343,toilet,2021.1.3,99.88642910256412,
0,180,-4,4,1.06,,,,,2,0,2,0,1,50,106,19,,,,,,,,,,,,,,,,,,,,,,,749.2016583000077,None,749.2016583000077,None,748.7013115999289,None,j,0.9184942999854684,749.2016583000077,None,,,,,,,d,001,2021_Jul_01_1343,toilet,2021.1.3,99.88642910256412,
180,0,4,-4,1.03,,,,,2,0,2,0,1,51,107,53,,,,,,,,,,,,,,,,,,,,,,,751.1229523000075,None,751.1229523000075,None,750.6226132999873,None,j,3.541164500056766,751.1229523000075,None,,,,,,,d,001,2021_Jul_01_1343,toilet,2021.1.3,99.88642910256412,
0,180,-4,4,0.85,,,,,2,0,2,0,1,52,108,14,,,,,,,,,,,,,,,,,,,,,,,755.666026599938,None,755.666026599938,None,755.1656896999339,None,f,0.7102931999834254,755.666026599938,None,,,,,,,d,001,2021_Jul_01_1343,toilet,2021.1.3,99.88642910256412,
180,0,4,-4,1.15,,,,,2,0,2,0,1,53,109,55,,,,,,,,,,,,,,,,,,,,,,,757.3871966999723,None,757.3871966999723,None,756.8868519999087,None,f,0.717162900022231,757.3871966999723,None,,,,,,,d,001,2021_Jul_01_1343,toilet,2021.1.3,99.88642910256412,
0,0,4,-4,1.15,,,,,2,0,2,0,1,54,110,13,,,,,,,,,,,,,,,,,,,,,,,759.1284616999328,None,759.1284616999328,None,758.6280412999913,None,f,0.4638923000311479,759.1284616999328,None,,,,,,,d,001,2021_Jul_01_1343,toilet,2021.1.3,99.88642910256412,
180,180,4,-4,1.03,,,,,2,0,2,0,1,55,111,39,,,,,,,,,,,,,,,,,,,,,,,760.6094497999875,None,760.6094497999875,None,760.1091070999391,None,f,0.598671399988234,760.6094497999875,None,,,,,,,d,001,2021_Jul_01_1343,toilet,2021.1.3,99.88642910256412,
,,,,,,,,,2,0,2,0,,,,,,,,,,,,,,,,,,,,,,,,,,,,,,,,,,,,,761.2197881999891,None,space,1.0444742999970913,761.2197881999891,None,d,001,2021_Jul_01_1343,toilet,2021.1.3,99.88642910256412,
0,180,4,-4,1.03,,,,,3,0,3,0,0,0,0,25,,,,,,,,,,,,,,,,,762.2805110999616,None,space,1.2956554999109358,762.2805110999616,None,764.5920807999792,None,764.5920807999792,None,764.091708599939,None,f,1.0162782000843436,764.5920807999792,None,,,,,,,d,001,2021_Jul_01_1343,toilet,2021.1.3,99.88642910256412,
0,180,-4,4,1.03,,,,,3,0,3,0,0,1,1,18,,,,,,,,,,,,,,,,,,,,,,,766.6334551000036,None,766.6334551000036,None,766.1331951000029,None,j,0.7187320999801159,766.6334551000036,None,,,,,,,d,001,2021_Jul_01_1343,toilet,2021.1.3,99.88642910256412,
0,180,4,-4,0.85,,,,,3,0,3,0,0,2,2,21,,,,,,,,,,,,,,,,,,,,,,,768.3545941999182,None,768.3545941999182,None,767.8543886999832,None,j,0.6456466999370605,768.3545941999182,None,,,,,,,d,001,2021_Jul_01_1343,toilet,2021.1.3,99.88642910256412,
0,180,4,-4,1.15,,,,,3,0,3,0,0,3,3,27,,,,,,,,,,,,,,,,,,,,,,,770.0057387999259,None,770.0057387999259,None,769.5054050999461,None,f,0.8184049000265077,770.0057387999259,None,,,,,,,d,001,2021_Jul_01_1343,toilet,2021.1.3,99.88642910256412,
180,180,-4,4,1.03,,,,,3,0,3,0,0,4,4,32,,,,,,,,,,,,,,,,,,,,,,,771.8269699999364,None,771.8269699999364,None,771.3266301999101,None,j,0.7891438999213278,771.8269699999364,None,,,,,,,d,001,2021_Jul_01_1343,toilet,2021.1.3,99.88642910256412,
0,180,-4,4,0.85,,,,,3,0,3,0,0,5,5,14,,,,,,,,,,,,,,,,,,,,,,,773.6282704999903,None,773.6282704999903,None,773.1279040999943,None,f,0.6040024999529123,773.6282704999903,None,,,,,,,d,001,2021_Jul_01_1343,toilet,2021.1.3,99.88642910256412,
180,180,-4,4,1.06,,,,,3,0,3,0,0,6,6,33,,,,,,,,,,,,,,,,,,,,,,,775.2493099999847,None,775.2493099999847,None,774.7490370000014,None,j,0.5509250999893993,775.2493099999847,None,,,,,,,d,001,2021_Jul_01_1343,toilet,2021.1.3,99.88642910256412,
0,0,-4,4,0.94,,,,,3,0,3,0,0,7,7,1,,,,,,,,,,,,,,,,,,,,,,,776.8103540999582,None,776.8103540999582,None,776.3100067999912,None,f,0.573888200102374,776.8103540999582,None,,,,,,,d,001,2021_Jul_01_1343,toilet,2021.1.3,99.88642910256412,
0,0,-4,4,0.97,,,,,3,0,3,0,0,8,8,2,,,,,,,,,,,,,,,,,,,,,,,778.391423999914,None,778.391423999914,None,777.8910798999714,None,f,0.6410966999828815,778.391423999914,None,,,,,,,d,001,2021_Jul_01_1343,toilet,2021.1.3,99.88642910256412,
0,180,-4,4,1.06,,,,,3,0,3,0,0,9,9,19,,,,,,,,,,,,,,,,,,,,,,,780.0425365999108,None,780.0425365999108,None,779.5421961999964,None,j,2.0618512999499217,780.0425365999108,None,,,,,,,d,001,2021_Jul_01_1343,toilet,2021.1.3,99.88642910256412,
0,0,-4,4,1.0,,,,,3,0,3,0,0,10,10,3,,,,,,,,,,,,,,,,,,,,,,,783.1046125999419,None,783.1046125999419,None,782.6043465000112,None,f,1.063620299915783,783.1046125999419,None,,,,,,,d,001,2021_Jul_01_1343,toilet,2021.1.3,99.88642910256412,
0,0,4,-4,1.03,,,,,3,0,3,0,0,11,11,11,,,,,,,,,,,,,,,,,,,,,,,785.1760093999328,None,785.1760093999328,None,784.6756715999218,None,j,1.120250599924475,785.1760093999328,None,,,,,,,d,001,2021_Jul_01_1343,toilet,2021.1.3,99.88642910256412,
180,180,-4,4,1.0,,,,,3,0,3,0,0,12,12,31,,,,,,,,,,,,,,,,,,,,,,,787.3074521999806,None,787.3074521999806,None,786.8071163999848,None,f,0.4287423000205308,787.3074521999806,None,,,,,,,d,001,2021_Jul_01_1343,toilet,2021.1.3,99.88642910256412,
180,0,4,-4,1.03,,,,,3,0,3,0,0,13,13,53,,,,,,,,,,,,,,,,,,,,,,,788.748428599909,None,788.748428599909,None,788.2480958999367,None,f,0.8597713999915868,788.748428599909,None,,,,,,,d,001,2021_Jul_01_1343,toilet,2021.1.3,99.88642910256412,
180,0,4,-4,0.97,,,,,3,0,3,0,0,14,14,51,,,,,,,,,,,,,,,,,,,,,,,790.6197015999351,None,790.6197015999351,None,790.1193902000086,None,f,1.676403500023298,790.6197015999351,None,,,,,,,d,001,2021_Jul_01_1343,toilet,2021.1.3,99.88642910256412,
180,180,4,-4,1.15,,,,,3,0,3,0,0,15,15,41,,,,,,,,,,,,,,,,,,,,,,,793.3015197999775,None,793.3015197999775,None,792.8011756999185,None,f,0.45078050007577986,793.3015197999775,None,,,,,,,d,001,2021_Jul_01_1343,toilet,2021.1.3,99.88642910256412,
180,180,-4,4,1.15,,,,,3,0,3,0,0,16,16,34,,,,,,,,,,,,,,,,,,,,,,,794.7525278999237,None,794.7525278999237,None,794.252158899908,None,j,0.5357632000232115,794.7525278999237,None,,,,,,,d,001,2021_Jul_01_1343,toilet,2021.1.3,99.88642910256412,
0,0,4,-4,0.85,,,,,3,0,3,0,0,17,17,7,,,,,,,,,,,,,,,,,,,,,,,796.3135594999185,None,796.3135594999185,None,795.8132181999972,None,j,0.46254610002506524,796.3135594999185,None,,,,,,,d,001,2021_Jul_01_1343,toilet,2021.1.3,99.88642910256412,
0,180,4,-4,1.06,,,,,3,0,3,0,0,18,18,26,,,,,,,,,,,,,,,,,,,,,,,797.7845536000095,None,797.7845536000095,None,797.2842883999692,None,f,1.071615600027144,797.7845536000095,None,,,,,,,d,001,2021_Jul_01_1343,toilet,2021.1.3,99.88642910256412,
180,180,4,-4,0.97,,,,,3,0,3,0,0,19,19,37,,,,,,,,,,,,,,,,,,,,,,,799.8559525999008,None,799.8559525999008,None,799.3556143000023,None,f,0.4881648999871686,799.8559525999008,None,,,,,,,d,001,2021_Jul_01_1343,toilet,2021.1.3,99.88642910256412,
180,180,-4,4,0.85,,,,,3,0,3,0,0,20,20,28,,,,,,,,,,,,,,,,,,,,,,,801.346957599977,None,801.346957599977,None,800.8466273999074,None,f,0.5171931000659242,801.346957599977,None,,,,,,,d,001,2021_Jul_01_1343,toilet,2021.1.3,99.88642910256412,
0,0,-4,4,1.06,,,,,3,0,3,0,0,21,21,5,,,,,,,,,,,,,,,,,,,,,,,802.8779987000162,None,802.8779987000162,None,802.3776619000128,None,j,0.6182307000271976,802.8779987000162,None,,,,,,,d,001,2021_Jul_01_1343,toilet,2021.1.3,99.88642910256412,
0,180,-4,4,1.15,,,,,3,0,3,0,0,22,22,20,,,,,,,,,,,,,,,,,,,,,,,804.5091825999552,None,804.5091825999552,None,804.008897599997,None,j,0.6670342000434175,804.5091825999552,None,,,,,,,d,001,2021_Jul_01_1343,toilet,2021.1.3,99.88642910256412,
0,0,-4,4,1.03,,,,,3,0,3,0,0,23,23,4,,,,,,,,,,,,,,,,,,,,,,,806.1902393999044,None,806.1902393999044,None,805.6899079999421,None,j,1.0658974000252783,806.1902393999044,None,,,,,,,d,001,2021_Jul_01_1343,toilet,2021.1.3,99.88642910256412,
180,180,-4,4,0.97,,,,,3,0,3,0,0,24,24,30,,,,,,,,,,,,,,,,,,,,,,,808.2616462999722,None,808.2616462999722,None,807.7613115999848,None,f,0.5306202000938356,808.2616462999722,None,,,,,,,d,001,2021_Jul_01_1343,toilet,2021.1.3,99.88642910256412,
0,0,-4,4,0.85,,,,,3,0,3,0,0,25,25,0,,,,,,,,,,,,,,,,,,,,,,,809.8026850000024,None,809.8026850000024,None,809.3023512999061,None,f,0.46162910002749413,809.8026850000024,None,,,,,,,d,001,2021_Jul_01_1343,toilet,2021.1.3,99.88642910256412,
0,180,-4,4,0.97,,,,,3,0,3,0,0,26,26,16,,,,,,,,,,,,,,,,,,,,,,,811.2836998999119,None,811.2836998999119,None,810.7833468999015,None,j,1.8284064999315888,811.2836998999119,None,,,,,,,d,001,2021_Jul_01_1343,toilet,2021.1.3,99.88642910256412,
0,180,4,-4,1.0,,,,,3,0,3,0,0,27,27,24,,,,,,,,,,,,,,,,,,,,,,,814.1156120999949,None,814.1156120999949,None,813.615267099929,None,f,1.0124401000794023,814.1156120999949,None,,,,,,,d,001,2021_Jul_01_1343,toilet,2021.1.3,99.88642910256412,
0,180,4,-4,0.97,,,,,3,0,3,0,0,28,28,23,,,,,,,,,,,,,,,,,,,,,,,816.1369769999292,None,816.1369769999292,None,815.636639699922,None,f,1.551286399946548,816.1369769999292,None,,,,,,,d,001,2021_Jul_01_1343,toilet,2021.1.3,99.88642910256412,
0,180,-4,4,0.94,,,,,3,0,3,0,0,29,29,15,,,,,,,,,,,,,,,,,,,,,,,818.6887929999502,None,818.6887929999502,None,818.1883837999776,None,f,0.9992386000230908,818.6887929999502,None,,,,,,,d,001,2021_Jul_01_1343,toilet,2021.1.3,99.88642910256412,
180,0,4,-4,1.0,,,,,3,0,3,0,0,30,30,52,,,,,,,,,,,,,,,,,,,,,,,820.7000682000071,None,820.7000682000071,None,820.199727899977,None,j,2.2684153000591323,820.7000682000071,None,,,,,,,d,001,2021_Jul_01_1343,toilet,2021.1.3,99.88642910256412,
0,0,4,-4,1.15,,,,,3,0,3,0,0,31,31,13,,,,,,,,,,,,,,,,,,,,,,,823.9922979999101,None,823.9922979999101,None,823.4919535999652,None,f,0.3840264000464231,823.9922979999101,None,,,,,,,d,001,2021_Jul_01_1343,toilet,2021.1.3,99.88642910256412,
0,0,-4,4,1.15,,,,,3,0,3,0,0,32,32,6,,,,,,,,,,,,,,,,,,,,,,,825.403248699964,None,825.403248699964,None,824.9029135999735,None,j,0.44498249993193895,825.403248699964,None,,,,,,,d,001,2021_Jul_01_1343,toilet,2021.1.3,99.88642910256412,
180,0,-4,4,1.06,,,,,3,0,3,0,0,33,33,47,,,,,,,,,,,,,,,,,,,,,,,826.8643219999503,None,826.8643219999503,None,826.3739886999829,None,j,1.3519266999792308,826.8643219999503,None,,,,,,,d,001,2021_Jul_01_1343,toilet,2021.1.3,99.88642910256412,
180,0,-4,4,0.97,,,,,3,0,3,0,0,34,34,44,,,,,,,,,,,,,,,,,,,,,,,829.2158293999964,None,829.2158293999964,None,828.7154941000044,None,f,1.2242432000348344,829.2158293999964,None,,,,,,,d,001,2021_Jul_01_1343,toilet,2021.1.3,99.88642910256412,
180,0,4,-4,1.15,,,,,3,0,3,0,0,35,35,55,,,,,,,,,,,,,,,,,,,,,,,831.4573489999166,None,831.4573489999166,None,830.9570094000082,None,f,0.9347075000405312,831.4573489999166,None,,,,,,,d,001,2021_Jul_01_1343,toilet,2021.1.3,99.88642910256412,
180,180,4,-4,1.06,,,,,3,0,3,0,0,36,36,40,,,,,,,,,,,,,,,,,,,,,,,833.3987506999401,None,833.3987506999401,None,832.8983295999933,None,f,0.5134684999939054,833.3987506999401,None,,,,,,,d,001,2021_Jul_01_1343,toilet,2021.1.3,99.88642910256412,
180,0,-4,4,1.03,,,,,3,0,3,0,0,37,37,46,,,,,,,,,,,,,,,,,,,,,,,834.9297156999819,None,834.9297156999819,None,834.4394567999989,None,j,1.078367399983108,834.9297156999819,None,,,,,,,d,001,2021_Jul_01_1343,toilet,2021.1.3,99.88642910256412,
180,0,-4,4,1.15,,,,,3,0,3,0,0,38,38,48,,,,,,,,,,,,,,,,,,,,,,,837.0111105999677,None,837.0111105999677,None,836.5107732999604,None,j,0.6292529000202194,837.0111105999677,None,,,,,,,d,001,2021_Jul_01_1343,toilet,2021.1.3,99.88642910256412,
0,0,4,-4,0.97,,,,,3,0,3,0,0,39,39,9,,,,,,,,,,,,,,,,,,,,,,,838.6522157000145,None,838.6522157000145,None,838.1518835999304,None,f,0.5079137999564409,838.6522157000145,None,,,,,,,d,001,2021_Jul_01_1343,toilet,2021.1.3,99.88642910256412,
180,180,4,-4,0.85,,,,,3,0,3,0,0,40,40,35,,,,,,,,,,,,,,,,,,,,,,,840.1632482999703,None,840.1632482999703,None,839.6629068999318,None,j,0.468897300073877,840.1632482999703,None,,,,,,,d,001,2021_Jul_01_1343,toilet,2021.1.3,99.88642910256412,
180,180,-4,4,0.94,,,,,3,0,3,0,0,41,41,29,,,,,,,,,,,,,,,,,,,,,,,841.6443335999502,None,841.6443335999502,None,841.1439101999858,None,f,0.5078319000313058,841.6443335999502,None,,,,,,,d,001,2021_Jul_01_1343,toilet,2021.1.3,99.88642910256412,
180,180,4,-4,0.94,,,,,3,0,3,0,0,42,42,36,,,,,,,,,,,,,,,,,,,,,,,843.1552704999922,None,843.1552704999922,None,842.6549290999537,None,j,0.8528552000643685,843.1552704999922,None,,,,,,,d,001,2021_Jul_01_1343,toilet,2021.1.3,99.88642910256412,
180,180,4,-4,1.0,,,,,3,0,3,0,0,43,43,38,,,,,,,,,,,,,,,,,,,,,,,845.016541799996,None,845.016541799996,None,844.5162238999037,None,f,1.0557241999777034,845.016541799996,None,,,,,,,d,001,2021_Jul_01_1343,toilet,2021.1.3,99.88642910256412,
180,0,-4,4,0.94,,,,,3,0,3,0,0,44,44,43,,,,,,,,,,,,,,,,,,,,,,,847.0979405000107,None,847.0979405000107,None,846.5975963999517,None,f,0.5102536999620497,847.0979405000107,None,,,,,,,d,001,2021_Jul_01_1343,toilet,2021.1.3,99.88642910256412,
180,0,-4,4,0.85,,,,,3,0,3,0,0,45,45,42,,,,,,,,,,,,,,,,,,,,,,,848.6190396999009,None,848.6190396999009,None,848.1186318999389,None,f,0.5090615000808612,848.6190396999009,None,,,,,,,d,001,2021_Jul_01_1343,toilet,2021.1.3,99.88642910256412,
0,180,-4,4,1.0,,,,,3,0,3,0,0,46,46,17,,,,,,,,,,,,,,,,,,,,,,,850.1299998000031,None,850.1299998000031,None,849.629662899999,None,j,2.0702200999949127,850.1299998000031,None,,,,,,,d,001,2021_Jul_01_1343,toilet,2021.1.3,99.88642910256412,
180,0,4,-4,0.85,,,,,3,0,3,0,0,47,47,49,,,,,,,,,,,,,,,,,,,,,,,853.2120820999844,None,853.2120820999844,None,852.7117528999224,None,j,2.428024600027129,853.2120820999844,None,,,,,,,d,001,2021_Jul_01_1343,toilet,2021.1.3,99.88642910256412,
180,180,4,-4,1.03,,,,,3,0,3,0,0,48,48,39,,,,,,,,,,,,,,,,,,,,,,,856.6444994999329,None,856.6444994999329,None,856.1441059999634,None,j,1.571690100012347,856.6444994999329,None,,,,,,,d,001,2021_Jul_01_1343,toilet,2021.1.3,99.88642910256412,
180,0,4,-4,0.94,,,,,3,0,3,0,0,49,49,50,,,,,,,,,,,,,,,,,,,,,,,859.216144099948,None,859.216144099948,None,858.7158071999438,None,j,1.0321878999238834,859.216144099948,None,,,,,,,d,001,2021_Jul_01_1343,toilet,2021.1.3,99.88642910256412,
0,0,4,-4,0.94,,,,,3,0,3,0,0,50,50,8,,,,,,,,,,,,,,,,,,,,,,,861.2575280999299,None,861.2575280999299,None,860.7571870000102,None,j,0.8626512999180704,861.2575280999299,None,,,,,,,d,001,2021_Jul_01_1343,toilet,2021.1.3,99.88642910256412,
0,0,4,-4,1.06,,,,,3,0,3,0,0,51,51,12,,,,,,,,,,,,,,,,,,,,,,,863.1288266999181,None,863.1288266999181,None,862.6284580999054,None,f,0.511370399966836,863.1288266999181,None,,,,,,,d,001,2021_Jul_01_1343,toilet,2021.1.3,99.88642910256412,
0,0,4,-4,1.0,,,,,3,0,3,0,0,52,52,10,,,,,,,,,,,,,,,,,,,,,,,864.6498247999698,None,864.6498247999698,None,864.149494699901,None,f,0.7662163000786677,864.6498247999698,None,,,,,,,d,001,2021_Jul_01_1343,toilet,2021.1.3,99.88642910256412,
0,180,4,-4,0.94,,,,,3,0,3,0,0,53,53,22,,,,,,,,,,,,,,,,,,,,,,,866.4210228999145,None,866.4210228999145,None,865.9206849999027,None,j,1.5231489000143483,866.4210228999145,None,,,,,,,d,001,2021_Jul_01_1343,toilet,2021.1.3,99.88642910256412,
180,0,-4,4,1.0,,,,,3,0,3,0,0,54,54,45,,,,,,,,,,,,,,,,,,,,,,,868.9627498999471,None,868.9627498999471,None,868.4624031999847,None,f,0.7572958999080583,868.9627498999471,None,,,,,,,d,001,2021_Jul_01_1343,toilet,2021.1.3,99.88642910256412,
180,0,4,-4,1.06,,,,,3,0,3,0,0,55,55,54,,,,,,,,,,,,,,,,,,,,,,,870.7240181999514,None,870.7240181999514,None,870.2236326999264,None,f,0.8360317000187933,870.7240181999514,None,,,,,,,d,001,2021_Jul_01_1343,toilet,2021.1.3,99.88642910256412,
0,180,4,-4,1.06,,,,,3,0,3,0,1,0,56,26,,,,,,,,,,,,,,,,,,,,,,,872.5651839999482,None,872.5651839999482,None,872.0648441999219,None,f,0.866836900007911,872.5651839999482,None,,,,,,,d,001,2021_Jul_01_1343,toilet,2021.1.3,99.88642910256412,
180,0,-4,4,1.0,,,,,3,0,3,0,1,1,57,45,,,,,,,,,,,,,,,,,,,,,,,874.436466199928,None,874.436466199928,None,873.936108599999,None,j,1.2036746999947354,874.436466199928,None,,,,,,,d,001,2021_Jul_01_1343,toilet,2021.1.3,99.88642910256412,
180,0,-4,4,1.06,,,,,3,0,3,0,1,2,58,47,,,,,,,,,,,,,,,,,,,,,,,876.6479491000064,None,876.6479491000064,None,876.1476143999025,None,j,0.9444333000574261,876.6479491000064,None,,,,,,,d,001,2021_Jul_01_1343,toilet,2021.1.3,99.88642910256412,
180,0,4,-4,1.0,,,,,3,0,3,0,1,3,59,52,,,,,,,,,,,,,,,,,,,,,,,878.5992690999992,None,878.5992690999992,None,878.0990231999895,None,f,0.7367603000020608,878.5992690999992,None,,,,,,,d,001,2021_Jul_01_1343,toilet,2021.1.3,99.88642910256412,
