ori_st,ori_pr,xpos_st,xpos_pr,size,trials_3.thisRepN,trials_3.thisTrialN,trials_3.thisN,trials_3.thisIndex,trials_2.thisRepN,trials_2.thisTrialN,trials_2.thisN,trials_2.thisIndex,trials.thisRepN,trials.thisTrialN,trials.thisN,trials.thisIndex,wel_pra.started,wel_pra.stopped,resp_wel.keys,resp_wel.rt,resp_wel.started,resp_wel.stopped,standard_pra.started,standard_pra.stopped,prove_pra.started,prove_pra.stopped,fixation.started,fixation.stopped,resp_pra.keys,resp_pra.rt,resp_pra.started,resp_pra.stopped,instr.started,instr.stopped,key_resp_2.keys,key_resp_2.rt,key_resp_2.started,key_resp_2.stopped,standard.started,standard.stopped,probe.started,probe.stopped,text.started,text.stopped,resp.keys,resp.rt,resp.started,resp.stopped,text_2.started,text_2.stopped,key_resp.keys,key_resp.rt,key_resp.started,key_resp.stopped,participant,session,date,expName,psychopyVersion,frameRate,
,,,,,,,,,,,,,,,,,60.681485699955374,None,space,277.9009389000712,60.681485699955374,None,,,,,,,,,,,,,,,,,,,,,,,,,,,,,,,,,a,001,2021_Jun_30_1635,toilet,2021.1.3,99.87755014456572,
180,0,-4,4,1.15,0,0,0,15,,,,,,,,,,,,,,,339.61975369998254,None,339.61975369998254,None,339.11944349994883,None,j,3.37871570000425,339.61975369998254,None,,,,,,,,,,,,,,,,,,,,,,,a,001,2021_Jun_30_1635,toilet,2021.1.3,99.87755014456572,
0,0,4,-4,0.85,0,1,1,1,,,,,,,,,,,,,,,344.02265929989517,None,344.02265929989517,None,343.5223230998963,None,j,1.119552499963902,344.02265929989517,None,,,,,,,,,,,,,,,,,,,,,,,a,001,2021_Jun_30_1635,toilet,2021.1.3,99.87755014456572,
180,180,-4,4,1.15,0,2,2,10,,,,,,,,,,,,,,,346.14413599995896,None,346.14413599995896,None,345.64383179997094,None,j,1.4941415999783203,346.14413599995896,None,,,,,,,,,,,,,,,,,,,,,,,a,001,2021_Jun_30_1635,toilet,2021.1.3,99.87755014456572,
180,180,-4,4,0.85,0,3,3,8,,,,,,,,,,,,,,,348.64579139999114,None,348.64579139999114,None,348.1454514999641,None,f,2.176599200000055,348.64579139999114,None,,,,,,,,,,,,,,,,,,,,,,,a,001,2021_Jun_30_1635,toilet,2021.1.3,99.87755014456572,
0,180,-4,4,1.15,0,4,4,6,,,,,,,,,,,,,,,351.8479594999226,None,351.8479594999226,None,351.34762579994276,None,j,1.7744683999335393,351.8479594999226,None,,,,,,,,,,,,,,,,,,,,,,,a,001,2021_Jun_30_1635,toilet,2021.1.3,99.87755014456572,
180,180,-4,4,0.85,0,5,5,9,,,,,,,,,,,,,,,354.629933899967,None,354.629933899967,None,354.12955089996103,None,f,0.7362749999156222,354.629933899967,None,,,,,,,,,,,,,,,,,,,,,,,a,001,2021_Jun_30_1635,toilet,2021.1.3,99.87755014456572,
180,0,-4,4,0.85,0,6,6,12,,,,,,,,,,,,,,,356.37102969991975,None,356.37102969991975,None,355.8706866999855,None,f,0.8831511000171304,356.37102969991975,None,,,,,,,,,,,,,,,,,,,,,,,a,001,2021_Jun_30_1635,toilet,2021.1.3,99.87755014456572,
0,180,4,-4,1.15,0,7,7,7,,,,,,,,,,,,,,,358.26231109991204,None,358.26231109991204,None,357.7619698999915,None,f,71.99991280003451,358.26231109991204,None,,,,,,,,,,,,,,,,,,,,,,,a,001,2021_Jun_30_1635,toilet,2021.1.3,99.87755014456572,
180,0,-4,4,0.85,0,8,8,13,,,,,,,,,,,,,,,431.26176619995385,None,431.26176619995385,None,430.76144559995737,None,f,0.6325647999765351,431.26176619995385,None,,,,,,,,,,,,,,,,,,,,,,,a,001,2021_Jun_30_1635,toilet,2021.1.3,99.87755014456572,
0,180,-4,4,0.85,0,9,9,4,,,,,,,,,,,,,,,432.9228898999281,None,432.9228898999281,None,432.42255239991937,None,f,0.5715232000220567,432.9228898999281,None,,,,,,,,,,,,,,,,,,,,,,,a,001,2021_Jun_30_1635,toilet,2021.1.3,99.87755014456572,
0,180,4,-4,0.85,0,10,10,5,,,,,,,,,,,,,,,434.4940324999625,None,434.4940324999625,None,433.9936166999396,None,j,0.6322561999550089,434.4940324999625,None,,,,,,,,,,,,,,,,,,,,,,,a,001,2021_Jun_30_1635,toilet,2021.1.3,99.87755014456572,
0,0,-4,4,0.85,0,11,11,0,,,,,,,,,,,,,,,436.14508379995823,None,436.14508379995823,None,435.6447798999725,None,f,0.8210652000270784,436.14508379995823,None,,,,,,,,,,,,,,,,,,,,,,,a,001,2021_Jun_30_1635,toilet,2021.1.3,99.87755014456572,
180,180,-4,4,1.15,0,12,12,11,,,,,,,,,,,,,,,437.9663187999977,None,437.9663187999977,None,437.4659712999128,None,j,0.6640138999791816,437.9663187999977,None,,,,,,,,,,,,,,,,,,,,,,,a,001,2021_Jun_30_1635,toilet,2021.1.3,99.87755014456572,
0,0,-4,4,1.15,0,13,13,2,,,,,,,,,,,,,,,439.6374426999828,None,439.6374426999828,None,439.1371020999504,None,j,0.5607538999756798,439.6374426999828,None,,,,,,,,,,,,,,,,,,,,,,,a,001,2021_Jun_30_1635,toilet,2021.1.3,99.87755014456572,
0,0,4,-4,1.15,0,14,14,3,,,,,,,,,,,,,,,441.19850269996095,None,441.19850269996095,None,440.69816009991337,None,f,0.6956547000445426,441.19850269996095,None,,,,,,,,,,,,,,,,,,,,,,,a,001,2021_Jun_30_1635,toilet,2021.1.3,99.87755014456572,
180,0,-4,4,1.15,0,15,15,14,,,,,,,,,,,,,,,442.8996904999949,None,442.8996904999949,None,442.39941099996213,None,j,0.5944568000268191,442.8996904999949,None,,,,,,,,,,,,,,,,,,,,,,,a,001,2021_Jun_30_1635,toilet,2021.1.3,99.87755014456572,
0,180,4,-4,1.0,,,,,0,0,0,0,0,0,0,24,,,,,,,,,,,,,,,,,443.5201216998976,None,space,15.398026899900287,443.5201216998976,None,459.93119029991794,None,459.93119029991794,None,459.4308516999008,None,j,2.251031899941154,459.93119029991794,None,,,,,,,a,001,2021_Jun_30_1635,toilet,2021.1.3,99.87755014456572,
0,180,4,-4,1.15,,,,,0,0,0,0,0,1,1,27,,,,,,,,,,,,,,,,,,,,,,,463.19340139999986,None,463.19340139999986,None,462.69308569992427,None,f,0.6847469999920577,463.19340139999986,None,,,,,,,a,001,2021_Jun_30_1635,toilet,2021.1.3,99.87755014456572,
180,180,-4,4,0.94,,,,,0,0,0,0,0,2,2,29,,,,,,,,,,,,,,,,,,,,,,,464.8846206999151,None,464.8846206999151,None,464.3843029999407,None,f,1.729550400050357,464.8846206999151,None,,,,,,,a,001,2021_Jun_30_1635,toilet,2021.1.3,99.87755014456572,
180,180,-4,4,1.0,,,,,0,0,0,0,0,3,3,31,,,,,,,,,,,,,,,,,,,,,,,467.61639509990346,None,467.61639509990346,None,467.11606289993506,None,f,3.509738099994138,467.61639509990346,None,,,,,,,a,001,2021_Jun_30_1635,toilet,2021.1.3,99.87755014456572,
180,180,4,-4,1.0,,,,,0,0,0,0,0,4,4,38,,,,,,,,,,,,,,,,,,,,,,,472.1295490999473,None,472.1295490999473,None,471.6291551999748,None,j,1.748566500027664,472.1295490999473,None,,,,,,,a,001,2021_Jun_30_1635,toilet,2021.1.3,99.87755014456572,
0,0,-4,4,1.06,,,,,0,0,0,0,0,5,5,5,,,,,,,,,,,,,,,,,,,,,,,474.8813174999086,None,474.8813174999086,None,474.380981199909,None,j,0.7888119999552146,474.8813174999086,None,,,,,,,a,001,2021_Jun_30_1635,toilet,2021.1.3,99.87755014456572,
180,0,-4,4,1.0,,,,,0,0,0,0,0,6,6,45,,,,,,,,,,,,,,,,,,,,,,,476.67253349989187,None,476.67253349989187,None,476.1721942999866,None,f,1.4137618000386283,476.67253349989187,None,,,,,,,a,001,2021_Jun_30_1635,toilet,2021.1.3,99.87755014456572,
180,0,4,-4,1.15,,,,,0,0,0,0,0,7,7,55,,,,,,,,,,,,,,,,,,,,,,,479.11419179989025,None,479.11419179989025,None,478.6138860998908,None,f,1.3239111000439152,479.11419179989025,None,,,,,,,a,001,2021_Jun_30_1635,toilet,2021.1.3,99.87755014456572,
180,0,-4,4,1.03,,,,,0,0,0,0,0,8,8,46,,,,,,,,,,,,,,,,,,,,,,,481.44576329994015,None,481.44576329994015,None,480.9454293999588,None,j,0.8003486999077722,481.44576329994015,None,,,,,,,a,001,2021_Jun_30_1635,toilet,2021.1.3,99.87755014456572,
180,180,4,-4,1.06,,,,,0,0,0,0,0,9,9,40,,,,,,,,,,,,,,,,,,,,,,,483.2469924999168,None,483.2469924999168,None,482.7466476999689,None,f,0.8390969999600202,483.2469924999168,None,,,,,,,a,001,2021_Jun_30_1635,toilet,2021.1.3,99.87755014456572,
0,180,-4,4,1.03,,,,,0,0,0,0,0,10,10,18,,,,,,,,,,,,,,,,,,,,,,,485.0882393999491,None,485.0882393999491,None,484.5879014999373,None,j,0.6460067000007257,485.0882393999491,None,,,,,,,a,001,2021_Jun_30_1635,toilet,2021.1.3,99.87755014456572,
0,0,4,-4,1.03,,,,,0,0,0,0,0,11,11,11,,,,,,,,,,,,,,,,,,,,,,,486.7593653999502,None,486.7593653999502,None,486.24903039995115,None,j,0.9427503999322653,486.7593653999502,None,,,,,,,a,001,2021_Jun_30_1635,toilet,2021.1.3,99.87755014456572,
180,0,4,-4,1.06,,,,,0,0,0,0,0,12,12,54,,,,,,,,,,,,,,,,,,,,,,,488.71068409993313,None,488.71068409993313,None,488.21034979994874,None,f,0.6715226999949664,488.71068409993313,None,,,,,,,a,001,2021_Jun_30_1635,toilet,2021.1.3,99.87755014456572,
0,0,-4,4,0.97,,,,,0,0,0,0,0,13,13,2,,,,,,,,,,,,,,,,,,,,,,,490.381822599913,None,490.381822599913,None,489.8814826000016,None,j,0.872383699985221,490.381822599913,None,,,,,,,a,001,2021_Jun_30_1635,toilet,2021.1.3,99.87755014456572,
0,0,4,-4,0.85,,,,,0,0,0,0,0,14,14,7,,,,,,,,,,,,,,,,,,,,,,,492.2831089999527,None,492.2831089999527,None,491.7827715999447,None,j,0.8111250998917967,492.2831089999527,None,,,,,,,a,001,2021_Jun_30_1635,toilet,2021.1.3,99.87755014456572,
0,0,4,-4,0.94,,,,,0,0,0,0,0,15,15,8,,,,,,,,,,,,,,,,,,,,,,,494.0943136999849,None,494.0943136999849,None,493.5940583999036,None,j,0.8239541000220925,494.0943136999849,None,,,,,,,a,001,2021_Jun_30_1635,toilet,2021.1.3,99.87755014456572,
0,180,4,-4,1.03,,,,,0,0,0,0,0,16,16,25,,,,,,,,,,,,,,,,,,,,,,,495.9355827999534,None,495.9355827999534,None,495.43524839996826,None,f,0.7745666999835521,495.9355827999534,None,,,,,,,a,001,2021_Jun_30_1635,toilet,2021.1.3,99.87755014456572,
0,0,-4,4,1.15,,,,,0,0,0,0,0,17,17,6,,,,,,,,,,,,,,,,,,,,,,,497.71678839996457,None,497.71678839996457,None,497.21645059995353,None,j,0.5933565000304952,497.71678839996457,None,,,,,,,a,001,2021_Jun_30_1635,toilet,2021.1.3,99.87755014456572,
180,180,4,-4,0.94,,,,,0,0,0,0,0,18,18,36,,,,,,,,,,,,,,,,,,,,,,,499.31786479998846,None,499.31786479998846,None,498.8175370999379,None,j,0.7203444000333548,499.31786479998846,None,,,,,,,a,001,2021_Jun_30_1635,toilet,2021.1.3,99.87755014456572,
180,0,-4,4,1.15,,,,,0,0,0,0,0,19,19,48,,,,,,,,,,,,,,,,,,,,,,,501.0390414999565,None,501.0390414999565,None,500.5387972999597,None,j,0.7110972000518814,501.0390414999565,None,,,,,,,a,001,2021_Jun_30_1635,toilet,2021.1.3,99.87755014456572,
180,180,4,-4,0.97,,,,,0,0,0,0,0,20,20,37,,,,,,,,,,,,,,,,,,,,,,,502.75020349991973,None,502.75020349991973,None,502.2498959999066,None,j,0.6320423999568447,502.75020349991973,None,,,,,,,a,001,2021_Jun_30_1635,toilet,2021.1.3,99.87755014456572,
180,0,-4,4,0.97,,,,,0,0,0,0,0,21,21,44,,,,,,,,,,,,,,,,,,,,,,,504.3913084999658,None,504.3913084999658,None,503.89097339997534,None,f,0.5749270000960678,504.3913084999658,None,,,,,,,a,001,2021_Jun_30_1635,toilet,2021.1.3,99.87755014456572,
0,0,4,-4,0.97,,,,,0,0,0,0,0,22,22,9,,,,,,,,,,,,,,,,,,,,,,,505.992400099989,None,505.992400099989,None,505.49205559992697,None,j,3.517707100021653,505.992400099989,None,,,,,,,a,001,2021_Jun_30_1635,toilet,2021.1.3,99.87755014456572,
0,180,-4,4,0.97,,,,,0,0,0,0,0,23,23,16,,,,,,,,,,,,,,,,,,,,,,,510.51546289992984,None,510.51546289992984,None,510.01512339990586,None,f,1.0746018999489024,510.51546289992984,None,,,,,,,a,001,2021_Jun_30_1635,toilet,2021.1.3,99.87755014456572,
0,0,-4,4,1.0,,,,,0,0,0,0,0,24,24,3,,,,,,,,,,,,,,,,,,,,,,,512.5968717999058,None,512.5968717999058,None,512.0965329000028,None,f,9.377315099933185,512.5968717999058,None,,,,,,,a,001,2021_Jun_30_1635,toilet,2021.1.3,99.87755014456572,
0,180,-4,4,1.0,,,,,0,0,0,0,0,25,25,17,,,,,,,,,,,,,,,,,,,,,,,522.9840061999857,None,522.9840061999857,None,522.4835725999437,None,j,9.422089500003494,522.9840061999857,None,,,,,,,a,001,2021_Jun_30_1635,toilet,2021.1.3,99.87755014456572,
180,180,-4,4,0.97,,,,,0,0,0,0,0,26,26,30,,,,,,,,,,,,,,,,,,,,,,,533.4109707999742,None,533.4109707999742,None,532.9106343999738,None,f,0.7070863000117242,533.4109707999742,None,,,,,,,a,001,2021_Jun_30_1635,toilet,2021.1.3,99.87755014456572,
0,0,4,-4,1.06,,,,,0,0,0,0,0,27,27,12,,,,,,,,,,,,,,,,,,,,,,,535.1221310999244,None,535.1221310999244,None,534.6217940999195,None,f,0.7561439999844879,535.1221310999244,None,,,,,,,a,001,2021_Jun_30_1635,toilet,2021.1.3,99.87755014456572,
0,180,-4,4,0.85,,,,,0,0,0,0,0,28,28,14,,,,,,,,,,,,,,,,,,,,,,,536.8833238999359,None,536.8833238999359,None,536.3829837999074,None,f,0.7387441999744624,536.8833238999359,None,,,,,,,a,001,2021_Jun_30_1635,toilet,2021.1.3,99.87755014456572,
180,180,4,-4,1.03,,,,,0,0,0,0,0,29,29,39,,,,,,,,,,,,,,,,,,,,,,,538.6245448999107,None,538.6245448999107,None,538.1241673999466,None,f,1.301478499895893,538.6245448999107,None,,,,,,,a,001,2021_Jun_30_1635,toilet,2021.1.3,99.87755014456572,
0,0,-4,4,1.03,,,,,0,0,0,0,0,30,30,4,,,,,,,,,,,,,,,,,,,,,,,540.9260628999909,None,540.9260628999909,None,540.425719199935,None,j,0.5040246000280604,540.9260628999909,None,,,,,,,a,001,2021_Jun_30_1635,toilet,2021.1.3,99.87755014456572,
180,180,4,-4,0.85,,,,,0,0,0,0,0,31,31,35,,,,,,,,,,,,,,,,,,,,,,,542.4370863999939,None,542.4370863999939,None,541.9367496999912,None,j,0.8011254000011832,542.4370863999939,None,,,,,,,a,001,2021_Jun_30_1635,toilet,2021.1.3,99.87755014456572,
0,180,4,-4,0.97,,,,,0,0,0,0,0,32,32,23,,,,,,,,,,,,,,,,,,,,,,,544.2483172999928,None,544.2483172999928,None,543.7480778999161,None,f,1.037771200062707,544.2483172999928,None,,,,,,,a,001,2021_Jun_30_1635,toilet,2021.1.3,99.87755014456572,
0,0,-4,4,0.85,,,,,0,0,0,0,0,33,33,0,,,,,,,,,,,,,,,,,,,,,,,546.2897098999238,None,546.2897098999238,None,545.7893928999547,None,f,0.6123777999309823,546.2897098999238,None,,,,,,,a,001,2021_Jun_30_1635,toilet,2021.1.3,99.87755014456572,
180,0,4,-4,1.03,,,,,0,0,0,0,0,34,34,53,,,,,,,,,,,,,,,,,,,,,,,547.9107929999009,None,547.9107929999009,None,547.4104554998921,None,j,1.3433243000181392,547.9107929999009,None,,,,,,,a,001,2021_Jun_30_1635,toilet,2021.1.3,99.87755014456572,
0,180,-4,4,0.94,,,,,0,0,0,0,0,35,35,15,,,,,,,,,,,,,,,,,,,,,,,550.2824021999259,None,550.2824021999259,None,549.7820645999163,None,f,0.97171289997641,550.2824021999259,None,,,,,,,a,001,2021_Jun_30_1635,toilet,2021.1.3,99.87755014456572,
180,0,4,-4,1.0,,,,,0,0,0,0,0,36,36,52,,,,,,,,,,,,,,,,,,,,,,,552.2637512999354,None,552.2637512999354,None,551.7634843999986,None,j,0.6702709998935461,552.2637512999354,None,,,,,,,a,001,2021_Jun_30_1635,toilet,2021.1.3,99.87755014456572,
180,0,4,-4,0.85,,,,,0,0,0,0,0,37,37,49,,,,,,,,,,,,,,,,,,,,,,,553.9349134999793,None,553.9349134999793,None,553.4346240999876,None,j,0.5032215999672189,553.9349134999793,None,,,,,,,a,001,2021_Jun_30_1635,toilet,2021.1.3,99.87755014456572,
180,0,-4,4,0.94,,,,,0,0,0,0,0,38,38,43,,,,,,,,,,,,,,,,,,,,,,,555.4459033999592,None,555.4459033999592,None,554.9455634999322,None,f,0.5441935000708327,555.4459033999592,None,,,,,,,a,001,2021_Jun_30_1635,toilet,2021.1.3,99.87755014456572,
0,0,-4,4,0.94,,,,,0,0,0,0,0,39,39,1,,,,,,,,,,,,,,,,,,,,,,,556.9969561999897,None,556.9969561999897,None,556.4966086999048,None,f,1.5052250999724492,556.9969561999897,None,,,,,,,a,001,2021_Jun_30_1635,toilet,2021.1.3,99.87755014456572,
0,0,4,-4,1.15,,,,,0,0,0,0,0,40,40,13,,,,,,,,,,,,,,,,,,,,,,,559.5187428999925,None,559.5187428999925,None,559.0183203999186,None,f,0.45545239991042763,559.5187428999925,None,,,,,,,a,001,2021_Jun_30_1635,toilet,2021.1.3,99.87755014456572,
180,180,-4,4,1.06,,,,,0,0,0,0,0,41,41,33,,,,,,,,,,,,,,,,,,,,,,,560.9797279998893,None,560.9797279998893,None,560.4793966999277,None,j,0.5623611999908462,560.9797279998893,None,,,,,,,a,001,2021_Jun_30_1635,toilet,2021.1.3,99.87755014456572,
0,180,4,-4,0.94,,,,,0,0,0,0,0,42,42,22,,,,,,,,,,,,,,,,,,,,,,,562.550717099919,None,562.550717099919,None,562.050377199892,None,j,0.927316699991934,562.550717099919,None,,,,,,,a,001,2021_Jun_30_1635,toilet,2021.1.3,99.87755014456572,
180,0,-4,4,1.06,,,,,0,0,0,0,0,43,43,47,,,,,,,,,,,,,,,,,,,,,,,564.4820203999989,None,564.4820203999989,None,563.9816863999004,None,j,0.7082680000457913,564.4820203999989,None,,,,,,,a,001,2021_Jun_30_1635,toilet,2021.1.3,99.87755014456572,
0,180,4,-4,0.85,,,,,0,0,0,0,0,44,44,21,,,,,,,,,,,,,,,,,,,,,,,566.2031883999007,None,566.2031883999007,None,565.7028473999817,None,j,0.49085429997649044,566.2031883999007,None,,,,,,,a,001,2021_Jun_30_1635,toilet,2021.1.3,99.87755014456572,
0,180,4,-4,1.06,,,,,0,0,0,0,0,45,45,26,,,,,,,,,,,,,,,,,,,,,,,567.7042021999368,None,567.7042021999368,None,567.2039055998903,None,f,0.509875199990347,567.7042021999368,None,,,,,,,a,001,2021_Jun_30_1635,toilet,2021.1.3,99.87755014456572,
180,180,-4,4,0.85,,,,,0,0,0,0,0,46,46,28,,,,,,,,,,,,,,,,,,,,,,,569.225237299921,None,569.225237299921,None,568.7248975998955,None,f,0.4928373999428004,569.225237299921,None,,,,,,,a,001,2021_Jun_30_1635,toilet,2021.1.3,99.87755014456572,
0,180,-4,4,1.15,,,,,0,0,0,0,0,47,47,20,,,,,,,,,,,,,,,,,,,,,,,570.7262512999587,None,570.7262512999587,None,570.2259138999507,None,j,0.47985320002771914,570.7262512999587,None,,,,,,,a,001,2021_Jun_30_1635,toilet,2021.1.3,99.87755014456572,
180,0,4,-4,0.94,,,,,0,0,0,0,0,48,48,50,,,,,,,,,,,,,,,,,,,,,,,572.2172622999642,None,572.2172622999642,None,571.7169221999357,None,j,0.44490360002964735,572.2172622999642,None,,,,,,,a,001,2021_Jun_30_1635,toilet,2021.1.3,99.87755014456572,
180,0,4,-4,0.97,,,,,0,0,0,0,0,49,49,51,,,,,,,,,,,,,,,,,,,,,,,573.688257599948,None,573.688257599948,None,573.1879230999621,None,j,0.4779387000016868,573.688257599948,None,,,,,,,a,001,2021_Jun_30_1635,toilet,2021.1.3,99.87755014456572,
0,180,-4,4,1.06,,,,,0,0,0,0,0,50,50,19,,,,,,,,,,,,,,,,,,,,,,,575.1692750999937,None,575.1692750999937,None,574.669023699942,None,j,0.5009006999898702,575.1692750999937,None,,,,,,,a,001,2021_Jun_30_1635,toilet,2021.1.3,99.87755014456572,
0,0,4,-4,1.0,,,,,0,0,0,0,0,51,51,10,,,,,,,,,,,,,,,,,,,,,,,576.6802841000026,None,576.6802841000026,None,576.1799477000022,None,j,0.4938327999552712,576.6802841000026,None,,,,,,,a,001,2021_Jun_30_1635,toilet,2021.1.3,99.87755014456572,
180,180,-4,4,1.03,,,,,0,0,0,0,0,52,52,32,,,,,,,,,,,,,,,,,,,,,,,578.1813037999673,None,578.1813037999673,None,577.680974299903,None,f,0.6568893000949174,578.1813037999673,None,,,,,,,a,001,2021_Jun_30_1635,toilet,2021.1.3,99.87755014456572,
180,180,4,-4,1.15,,,,,0,0,0,0,0,53,53,41,,,,,,,,,,,,,,,,,,,,,,,579.8624631999992,None,579.8624631999992,None,579.3621066999622,None,f,0.4958192999474704,579.8624631999992,None,,,,,,,a,001,2021_Jun_30_1635,toilet,2021.1.3,99.87755014456572,
180,0,-4,4,0.85,,,,,0,0,0,0,0,54,54,42,,,,,,,,,,,,,,,,,,,,,,,581.3734647999518,None,581.3734647999518,None,580.8731281999499,None,f,0.5685022999532521,581.3734647999518,None,,,,,,,a,001,2021_Jun_30_1635,toilet,2021.1.3,99.87755014456572,
180,180,-4,4,1.15,,,,,0,0,0,0,0,55,55,34,,,,,,,,,,,,,,,,,,,,,,,582.9446110998979,None,582.9446110998979,None,582.4442341999384,None,j,0.5017720999894664,582.9446110998979,None,,,,,,,a,001,2021_Jun_30_1635,toilet,2021.1.3,99.87755014456572,
180,180,4,-4,0.97,,,,,0,0,0,0,1,0,56,37,,,,,,,,,,,,,,,,,,,,,,,584.4655668999767,None,584.4655668999767,None,583.9652373999124,None,f,0.5324818000663072,584.4655668999767,None,,,,,,,a,001,2021_Jun_30_1635,toilet,2021.1.3,99.87755014456572,
0,180,4,-4,1.0,,,,,0,0,0,0,1,1,57,24,,,,,,,,,,,,,,,,,,,,,,,586.0066028999863,None,586.0066028999863,None,585.5062635999639,None,j,0.7835950000444427,586.0066028999863,None,,,,,,,a,001,2021_Jun_30_1635,toilet,2021.1.3,99.87755014456572,
180,0,4,-4,1.0,,,,,0,0,0,0,1,2,58,52,,,,,,,,,,,,,,,,,,,,,,,587.8078244999051,None,587.8078244999051,None,587.307490499923,None,j,1.8463408999377862,587.8078244999051,None,,,,,,,a,001,2021_Jun_30_1635,toilet,2021.1.3,99.87755014456572,
0,180,4,-4,0.94,,,,,0,0,0,0,1,3,59,22,,,,,,,,,,,,,,,,,,,,,,,590.6697613999713,None,590.6697613999713,None,590.1795249999268,None,j,1.3202502999920398,590.6697613999713,None,,,,,,,a,001,2021_Jun_30_1635,toilet,2021.1.3,99.87755014456572,
0,180,-4,4,1.03,,,,,0,0,0,0,1,4,60,18,,,,,,,,,,,,,,,,,,,,,,,592.9913325998932,None,592.9913325998932,None,592.4910048999591,None,j,0.9507586000254378,592.9913325998932,None,,,,,,,a,001,2021_Jun_30_1635,toilet,2021.1.3,99.87755014456572,
180,180,-4,4,1.0,,,,,0,0,0,0,1,5,61,31,,,,,,,,,,,,,,,,,,,,,,,594.9526645999867,None,594.9526645999867,None,594.4523239999544,None,f,0.7334449000190943,594.9526645999867,None,,,,,,,a,001,2021_Jun_30_1635,toilet,2021.1.3,99.87755014456572,
0,180,-4,4,0.97,,,,,0,0,0,0,1,6,62,16,,,,,,,,,,,,,,,,,,,,,,,596.6938425999833,None,596.6938425999833,None,596.2036026999122,None,f,1.5523334000026807,596.6938425999833,None,,,,,,,a,001,2021_Jun_30_1635,toilet,2021.1.3,99.87755014456572,
180,0,4,-4,1.06,,,,,0,0,0,0,1,7,63,54,,,,,,,,,,,,,,,,,,,,,,,599.2455703999149,None,599.2455703999149,None,598.7452339999145,None,j,1.4965710999676958,599.2455703999149,None,,,,,,,a,001,2021_Jun_30_1635,toilet,2021.1.3,99.87755014456572,
180,0,4,-4,0.97,,,,,0,0,0,0,1,8,64,51,,,,,,,,,,,,,,,,,,,,,,,601.7672759999987,None,601.7672759999987,None,601.2669462999329,None,j,0.8468540000030771,601.7672759999987,None,,,,,,,a,001,2021_Jun_30_1635,toilet,2021.1.3,99.87755014456572,
0,0,-4,4,0.94,,,,,0,0,0,0,1,9,65,1,,,,,,,,,,,,,,,,,,,,,,,603.628613299923,None,603.628613299923,None,603.1282036999473,None,f,0.6974254000233486,603.628613299923,None,,,,,,,a,001,2021_Jun_30_1635,toilet,2021.1.3,99.87755014456572,
0,0,-4,4,1.06,,,,,0,0,0,0,1,10,66,5,,,,,,,,,,,,,,,,,,,,,,,605.339738599956,None,605.339738599956,None,604.8394086000044,None,j,0.5701612000120804,605.339738599956,None,,,,,,,a,001,2021_Jun_30_1635,toilet,2021.1.3,99.87755014456572,
180,0,-4,4,0.97,,,,,0,0,0,0,1,11,67,44,,,,,,,,,,,,,,,,,,,,,,,606.9107652999228,None,606.9107652999228,None,606.4104526999872,None,f,0.9192596999928355,606.9107652999228,None,,,,,,,a,001,2021_Jun_30_1635,toilet,2021.1.3,99.87755014456572,
0,0,4,-4,0.97,,,,,0,0,0,0,1,12,68,9,,,,,,,,,,,,,,,,,,,,,,,608.8320433999179,None,608.8320433999179,None,608.3317270999542,None,j,0.5180236999876797,608.8320433999179,None,,,,,,,a,001,2021_Jun_30_1635,toilet,2021.1.3,99.87755014456572,
180,0,4,-4,0.85,,,,,0,0,0,0,1,13,69,49,,,,,,,,,,,,,,,,,,,,,,,610.3631049999967,None,610.3631049999967,None,609.862773999921,None,j,0.45892860007006675,610.3631049999967,None,,,,,,,a,001,2021_Jun_30_1635,toilet,2021.1.3,99.87755014456572,
0,0,-4,4,1.0,,,,,0,0,0,0,1,14,70,3,,,,,,,,,,,,,,,,,,,,,,,611.8341357999016,None,611.8341357999016,None,611.3337762999581,None,j,0.47605099994689226,611.8341357999016,None,,,,,,,a,001,2021_Jun_30_1635,toilet,2021.1.3,99.87755014456572,
0,0,-4,4,1.03,,,,,0,0,0,0,1,15,71,4,,,,,,,,,,,,,,,,,,,,,,,613.3251080999617,None,613.3251080999617,None,612.8248077000026,None,f,0.4888818000908941,613.3251080999617,None,,,,,,,a,001,2021_Jun_30_1635,toilet,2021.1.3,99.87755014456572,
180,0,4,-4,1.15,,,,,0,0,0,0,1,16,72,55,,,,,,,,,,,,,,,,,,,,,,,614.8161163999466,None,614.8161163999466,None,614.3157854999881,None,f,0.7899444999638945,614.8161163999466,None,,,,,,,a,001,2021_Jun_30_1635,toilet,2021.1.3,99.87755014456572,
180,180,-4,4,1.03,,,,,0,0,0,0,1,17,73,32,,,,,,,,,,,,,,,,,,,,,,,616.6173443999141,None,616.6173443999141,None,616.1170033999952,None,j,0.5567733999341726,616.6173443999141,None,,,,,,,a,001,2021_Jun_30_1635,toilet,2021.1.3,99.87755014456572,
0,0,4,-4,1.03,,,,,0,0,0,0,1,18,74,11,,,,,,,,,,,,,,,,,,,,,,,618.1984103999566,None,618.1984103999566,None,617.6980735999532,None,f,1.791731100063771,618.1984103999566,None,,,,,,,a,001,2021_Jun_30_1635,toilet,2021.1.3,99.87755014456572,
0,180,-4,4,1.15,,,,,0,0,0,0,1,19,75,20,,,,,,,,,,,,,,,,,,,,,,,621.0003054999979,None,621.0003054999979,None,620.4999746999238,None,j,0.5737918000668287,621.0003054999979,None,,,,,,,a,001,2021_Jun_30_1635,toilet,2021.1.3,99.87755014456572,
0,180,-4,4,0.94,,,,,0,0,0,0,1,20,76,15,,,,,,,,,,,,,,,,,,,,,,,622.5813873999286,None,622.5813873999286,None,622.0810406999663,None,f,0.6407626000000164,622.5813873999286,None,,,,,,,a,001,2021_Jun_30_1635,toilet,2021.1.3,99.87755014456572,
0,0,-4,4,1.15,,,,,0,0,0,0,1,21,77,6,,,,,,,,,,,,,,,,,,,,,,,624.2224913999671,None,624.2224913999671,None,623.7221578999888,None,j,0.48763790004886687,624.2224913999671,None,,,,,,,a,001,2021_Jun_30_1635,toilet,2021.1.3,99.87755014456572,
0,0,4,-4,1.15,,,,,0,0,0,0,1,22,78,13,,,,,,,,,,,,,,,,,,,,,,,625.7235066998983,None,625.7235066998983,None,625.2232525999425,None,f,0.9066217000363395,625.7235066998983,None,,,,,,,a,001,2021_Jun_30_1635,toilet,2021.1.3,99.87755014456572,
180,180,-4,4,0.94,,,,,0,0,0,0,1,23,79,29,,,,,,,,,,,,,,,,,,,,,,,627.6448912000051,None,627.6448912000051,None,627.1444654999068,None,f,0.9850127000827342,627.6448912000051,None,,,,,,,a,001,2021_Jun_30_1635,toilet,2021.1.3,99.87755014456572,
180,180,-4,4,1.15,,,,,0,0,0,0,1,24,80,34,,,,,,,,,,,,,,,,,,,,,,,629.6361604999984,None,629.6361604999984,None,629.1358217999805,None,j,0.5297913000686094,629.6361604999984,None,,,,,,,a,001,2021_Jun_30_1635,toilet,2021.1.3,99.87755014456572,
180,0,-4,4,0.85,,,,,0,0,0,0,1,25,81,42,,,,,,,,,,,,,,,,,,,,,,,631.1772054999601,None,631.1772054999601,None,630.6768641999224,None,f,0.5248818000545725,631.1772054999601,None,,,,,,,a,001,2021_Jun_30_1635,toilet,2021.1.3,99.87755014456572,
0,180,-4,4,1.06,,,,,0,0,0,0,1,26,82,19,,,,,,,,,,,,,,,,,,,,,,,632.7282562999753,None,632.7282562999753,None,632.2279190999689,None,j,0.5737591000506654,632.7282562999753,None,,,,,,,a,001,2021_Jun_30_1635,toilet,2021.1.3,99.87755014456572,
0,0,-4,4,0.85,,,,,0,0,0,0,1,27,83,0,,,,,,,,,,,,,,,,,,,,,,,634.3193732999498,None,634.3193732999498,None,633.8189951999811,None,f,0.6307077000383288,634.3193732999498,None,,,,,,,a,001,2021_Jun_30_1635,toilet,2021.1.3,99.87755014456572,
180,0,4,-4,1.03,,,,,0,0,0,0,1,28,84,53,,,,,,,,,,,,,,,,,,,,,,,635.9504403999308,None,635.9504403999308,None,635.4500989998924,None,f,2.1516492000082508,635.9504403999308,None,,,,,,,a,001,2021_Jun_30_1635,toilet,2021.1.3,99.87755014456572,
180,0,4,-4,0.94,,,,,0,0,0,0,1,29,85,50,,,,,,,,,,,,,,,,,,,,,,,639.112575499923,None,639.112575499923,None,638.6122415999416,None,f,1.6454112000064924,639.112575499923,None,,,,,,,a,001,2021_Jun_30_1635,toilet,2021.1.3,99.87755014456572,
180,180,4,-4,1.0,,,,,0,0,0,0,1,30,86,38,,,,,,,,,,,,,,,,,,,,,,,641.7744156999979,None,641.7744156999979,None,641.2741421998944,None,f,0.5035631000064313,641.7744156999979,None,,,,,,,a,001,2021_Jun_30_1635,toilet,2021.1.3,99.87755014456572,
0,180,-4,4,0.85,,,,,0,0,0,0,1,31,87,14,,,,,,,,,,,,,,,,,,,,,,,643.2854048999725,None,643.2854048999725,None,642.7850687999744,None,f,0.512640800094232,643.2854048999725,None,,,,,,,a,001,2021_Jun_30_1635,toilet,2021.1.3,99.87755014456572,
0,0,4,-4,0.85,,,,,0,0,0,0,1,32,88,7,,,,,,,,,,,,,,,,,,,,,,,644.8064426999772,None,644.8064426999772,None,644.3061040999601,None,j,0.5594464000314474,644.8064426999772,None,,,,,,,a,001,2021_Jun_30_1635,toilet,2021.1.3,99.87755014456572,
0,0,4,-4,1.0,,,,,0,0,0,0,1,33,89,10,,,,,,,,,,,,,,,,,,,,,,,646.367489199969,None,646.367489199969,None,645.8671574000036,None,j,0.5665873000398278,646.367489199969,None,,,,,,,a,001,2021_Jun_30_1635,toilet,2021.1.3,99.87755014456572,
180,180,4,-4,0.85,,,,,0,0,0,0,1,34,90,35,,,,,,,,,,,,,,,,,,,,,,,647.9585760999471,None,647.9585760999471,None,647.4582344999071,None,j,0.5275303000817075,647.9585760999471,None,,,,,,,a,001,2021_Jun_30_1635,toilet,2021.1.3,99.87755014456572,
0,180,4,-4,1.03,,,,,0,0,0,0,1,35,91,25,,,,,,,,,,,,,,,,,,,,,,,649.4996858999366,None,649.4996858999366,None,648.9993175999261,None,f,0.5862224999582395,649.4996858999366,None,,,,,,,a,001,2021_Jun_30_1635,toilet,2021.1.3,99.87755014456572,
180,180,4,-4,1.15,,,,,0,0,0,0,1,36,92,41,,,,,,,,,,,,,,,,,,,,,,,651.090690699988,None,651.090690699988,None,650.5903713000007,None,f,0.45127730001695454,651.090690699988,None,,,,,,,a,001,2021_Jun_30_1635,toilet,2021.1.3,99.87755014456572,
0,180,4,-4,0.85,,,,,0,0,0,0,1,37,93,21,,,,,,,,,,,,,,,,,,,,,,,652.5416794999037,None,652.5416794999037,None,652.0413396999938,None,j,0.47245340002700686,652.5416794999037,None,,,,,,,a,001,2021_Jun_30_1635,toilet,2021.1.3,99.87755014456572,
0,0,-4,4,0.97,,,,,0,0,0,0,1,38,94,2,,,,,,,,,,,,,,,,,,,,,,,654.0326864999952,None,654.0326864999952,None,653.5323558999225,None,f,0.8052834999980405,654.0326864999952,None,,,,,,,a,001,2021_Jun_30_1635,toilet,2021.1.3,99.87755014456572,
0,0,4,-4,0.94,,,,,0,0,0,0,1,39,95,8,,,,,,,,,,,,,,,,,,,,,,,655.8539192999015,None,655.8539192999015,None,655.3536578998901,None,j,0.6162957999622449,655.8539192999015,None,,,,,,,a,001,2021_Jun_30_1635,toilet,2021.1.3,99.87755014456572,
180,180,4,-4,1.03,,,,,0,0,0,0,1,40,96,39,,,,,,,,,,,,,,,,,,,,,,,657.485024799942,None,657.485024799942,None,656.9846864999272,None,f,0.7609213999239728,657.485024799942,None,,,,,,,a,001,2021_Jun_30_1635,toilet,2021.1.3,99.87755014456572,
180,0,-4,4,1.0,,,,,0,0,0,0,1,41,97,45,,,,,,,,,,,,,,,,,,,,,,,659.2462164999451,None,659.2462164999451,None,658.7459022999974,None,j,0.6158519999589771,659.2462164999451,None,,,,,,,a,001,2021_Jun_30_1635,toilet,2021.1.3,99.87755014456572,
180,180,4,-4,1.06,,,,,0,0,0,0,1,42,98,40,,,,,,,,,,,,,,,,,,,,,,,660.8773212999804,None,660.8773212999804,None,660.3769893998979,None,f,0.7285780999809504,660.8773212999804,None,,,,,,,a,001,2021_Jun_30_1635,toilet,2021.1.3,99.87755014456572,
0,180,4,-4,1.06,,,,,0,0,0,0,1,43,99,26,,,,,,,,,,,,,,,,,,,,,,,662.6085889999522,None,662.6085889999522,None,662.1081565999193,None,f,0.5494088999694213,662.6085889999522,None,,,,,,,a,001,2021_Jun_30_1635,toilet,2021.1.3,99.87755014456572,
180,180,-4,4,0.97,,,,,0,0,0,0,1,44,100,30,,,,,,,,,,,,,,,,,,,,,,,664.1695962999947,None,664.1695962999947,None,663.6692918000044,None,f,0.6682674000039697,664.1695962999947,None,,,,,,,a,001,2021_Jun_30_1635,toilet,2021.1.3,99.87755014456572,
0,180,4,-4,1.15,,,,,0,0,0,0,1,45,101,27,,,,,,,,,,,,,,,,,,,,,,,665.8406823999248,None,665.8406823999248,None,665.3403488999465,None,f,0.6132616000249982,665.8406823999248,None,,,,,,,a,001,2021_Jun_30_1635,toilet,2021.1.3,99.87755014456572,
180,180,-4,4,0.85,,,,,0,0,0,0,1,46,102,28,,,,,,,,,,,,,,,,,,,,,,,667.4617822999135,None,667.4617822999135,None,666.9614422000013,None,f,0.5763355999952182,667.4617822999135,None,,,,,,,a,001,2021_Jun_30_1635,toilet,2021.1.3,99.87755014456572,
0,180,-4,4,1.0,,,,,0,0,0,0,1,47,103,17,,,,,,,,,,,,,,,,,,,,,,,669.0428562999004,None,669.0428562999004,None,668.5425234999275,None,f,0.7552080999594182,669.0428562999004,None,,,,,,,a,001,2021_Jun_30_1635,toilet,2021.1.3,99.87755014456572,
180,0,-4,4,0.94,,,,,0,0,0,0,1,48,104,43,,,,,,,,,,,,,,,,,,,,,,,670.824152499903,None,670.824152499903,None,670.3237279999303,None,f,0.653803399996832,670.824152499903,None,,,,,,,a,001,2021_Jun_30_1635,toilet,2021.1.3,99.87755014456572,
180,180,-4,4,1.06,,,,,0,0,0,0,1,49,105,33,,,,,,,,,,,,,,,,,,,,,,,672.4851898999186,None,672.4851898999186,None,671.984865999897,None,j,0.5127878999337554,672.4851898999186,None,,,,,,,a,001,2021_Jun_30_1635,toilet,2021.1.3,99.87755014456572,
0,0,4,-4,1.06,,,,,0,0,0,0,1,50,106,12,,,,,,,,,,,,,,,,,,,,,,,674.006212499924,None,674.006212499924,None,673.5058759999229,None,f,1.3597972999559715,674.006212499924,None,,,,,,,a,001,2021_Jun_30_1635,toilet,2021.1.3,99.87755014456572,
180,0,-4,4,1.06,,,,,0,0,0,0,1,51,107,47,,,,,,,,,,,,,,,,,,,,,,,676.377822099952,None,676.377822099952,None,675.8774824999273,None,j,1.4200917999260128,676.377822099952,None,,,,,,,a,001,2021_Jun_30_1635,toilet,2021.1.3,99.87755014456572,
180,180,4,-4,0.94,,,,,0,0,0,0,1,52,108,36,,,,,,,,,,,,,,,,,,,,,,,678.809550399892,None,678.809550399892,None,678.3092025999213,None,f,0.6363603000063449,678.809550399892,None,,,,,,,a,001,2021_Jun_30_1635,toilet,2021.1.3,99.87755014456572,
180,0,-4,4,1.03,,,,,0,0,0,0,1,53,109,46,,,,,,,,,,,,,,,,,,,,,,,680.4505796999438,None,680.4505796999438,None,679.9502392999129,None,j,0.5633828999707475,680.4505796999438,None,,,,,,,a,001,2021_Jun_30_1635,toilet,2021.1.3,99.87755014456572,
180,0,-4,4,1.15,,,,,0,0,0,0,1,54,110,48,,,,,,,,,,,,,,,,,,,,,,,682.0216441999655,None,682.0216441999655,None,681.5213097999804,None,j,0.5762845000717789,682.0216441999655,None,,,,,,,a,001,2021_Jun_30_1635,toilet,2021.1.3,99.87755014456572,
0,180,4,-4,0.97,,,,,0,0,0,0,1,55,111,23,,,,,,,,,,,,,,,,,,,,,,,683.6027180999517,None,683.6027180999517,None,683.1023774999194,None,j,0.5153298999648541,683.6027180999517,None,,,,,,,a,001,2021_Jun_30_1635,toilet,2021.1.3,99.87755014456572,
,,,,,,,,,0,0,0,0,,,,,,,,,,,,,,,,,,,,,,,,,,,,,,,,,,,,,684.1531424999703,None,space,60.94067929999437,684.1531424999703,None,a,001,2021_Jun_30_1635,toilet,2021.1.3,99.87755014456572,
0,180,4,-4,1.06,,,,,1,0,1,0,0,0,0,26,,,,,,,,,,,,,,,,,745.1043741999893,None,space,5.47770260006655,745.1043741999893,None,751.6088845999911,None,751.6088845999911,None,751.1084454999072,None,f,0.685072600026615,751.6088845999911,None,,,,,,,a,001,2021_Jun_30_1635,toilet,2021.1.3,99.87755014456572,
0,180,-4,4,0.94,,,,,1,0,1,0,0,1,1,15,,,,,,,,,,,,,,,,,,,,,,,753.2999225999229,None,753.2999225999229,None,752.7996815999504,None,f,0.5619933999842033,753.2999225999229,None,,,,,,,a,001,2021_Jun_30_1635,toilet,2021.1.3,99.87755014456572,
180,0,-4,4,1.03,,,,,1,0,1,0,0,2,2,46,,,,,,,,,,,,,,,,,,,,,,,754.8709935999941,None,754.8709935999941,None,754.3706523999572,None,j,0.5428139000432566,754.8709935999941,None,,,,,,,a,001,2021_Jun_30_1635,toilet,2021.1.3,99.87755014456572,
180,180,-4,4,1.15,,,,,1,0,1,0,0,3,3,34,,,,,,,,,,,,,,,,,,,,,,,756.4320466999197,None,756.4320466999197,None,755.9317221998936,None,j,0.5337638999335468,756.4320466999197,None,,,,,,,a,001,2021_Jun_30_1635,toilet,2021.1.3,99.87755014456572,
0,0,4,-4,1.0,,,,,1,0,1,0,0,4,4,10,,,,,,,,,,,,,,,,,,,,,,,757.9831147999503,None,757.9831147999503,None,757.4827559998957,None,f,0.7747185000916943,757.9831147999503,None,,,,,,,a,001,2021_Jun_30_1635,toilet,2021.1.3,99.87755014456572,
180,0,-4,4,0.85,,,,,1,0,1,0,0,5,5,42,,,,,,,,,,,,,,,,,,,,,,,759.7643806999549,None,759.7643806999549,None,759.2640061998973,None,f,0.5935049999970943,759.7643806999549,None,,,,,,,a,001,2021_Jun_30_1635,toilet,2021.1.3,99.87755014456572,
0,0,4,-4,1.06,,,,,1,0,1,0,0,6,6,12,,,,,,,,,,,,,,,,,,,,,,,761.365379099967,None,761.365379099967,None,760.8650454999879,None,f,0.7364792000735179,761.365379099967,None,,,,,,,a,001,2021_Jun_30_1635,toilet,2021.1.3,99.87755014456572,
0,180,-4,4,1.06,,,,,1,0,1,0,0,7,7,19,,,,,,,,,,,,,,,,,,,,,,,763.1065696999431,None,763.1065696999431,None,762.606231499929,None,j,0.5953911999240518,763.1065696999431,None,,,,,,,a,001,2021_Jun_30_1635,toilet,2021.1.3,99.87755014456572,
0,0,-4,4,1.15,,,,,1,0,1,0,0,8,8,6,,,,,,,,,,,,,,,,,,,,,,,764.7076493999921,None,764.7076493999921,None,764.2073159998981,None,j,0.5462929999921471,764.7076493999921,None,,,,,,,a,001,2021_Jun_30_1635,toilet,2021.1.3,99.87755014456572,
0,180,4,-4,1.15,,,,,1,0,1,0,0,9,9,27,,,,,,,,,,,,,,,,,,,,,,,766.2687042999314,None,766.2687042999314,None,765.7683740999782,None,f,0.5371903999475762,766.2687042999314,None,,,,,,,a,001,2021_Jun_30_1635,toilet,2021.1.3,99.87755014456572,
180,180,4,-4,0.85,,,,,1,0,1,0,0,10,10,35,,,,,,,,,,,,,,,,,,,,,,,767.809756899951,None,767.809756899951,None,767.3094250999857,None,j,0.532154299900867,767.809756899951,None,,,,,,,a,001,2021_Jun_30_1635,toilet,2021.1.3,99.87755014456572,
180,180,-4,4,1.06,,,,,1,0,1,0,0,11,11,33,,,,,,,,,,,,,,,,,,,,,,,769.3508023999166,None,769.3508023999166,None,768.8504553999519,None,j,0.49501419998705387,769.3508023999166,None,,,,,,,a,001,2021_Jun_30_1635,toilet,2021.1.3,99.87755014456572,
0,0,-4,4,1.0,,,,,1,0,1,0,0,12,12,3,,,,,,,,,,,,,,,,,,,,,,,770.8518112999154,None,770.8518112999154,None,770.3514758999227,None,f,0.6582127999281511,770.8518112999154,None,,,,,,,a,001,2021_Jun_30_1635,toilet,2021.1.3,99.87755014456572,
180,0,-4,4,1.0,,,,,1,0,1,0,0,13,13,45,,,,,,,,,,,,,,,,,,,,,,,772.5229489000048,None,772.5229489000048,None,772.0226064999588,None,j,0.6509122999850661,772.5229489000048,None,,,,,,,a,001,2021_Jun_30_1635,toilet,2021.1.3,99.87755014456572,
180,180,-4,4,1.03,,,,,1,0,1,0,0,14,14,32,,,,,,,,,,,,,,,,,,,,,,,774.1741513999877,None,774.1741513999877,None,773.6737436999101,None,j,0.5356544000096619,774.1741513999877,None,,,,,,,a,001,2021_Jun_30_1635,toilet,2021.1.3,99.87755014456572,
0,180,4,-4,1.03,,,,,1,0,1,0,0,15,15,25,,,,,,,,,,,,,,,,,,,,,,,775.7251176999416,None,775.7251176999416,None,775.2247757998994,None,f,0.5526929999468848,775.7251176999416,None,,,,,,,a,001,2021_Jun_30_1635,toilet,2021.1.3,99.87755014456572,
0,0,-4,4,0.97,,,,,1,0,1,0,0,16,16,2,,,,,,,,,,,,,,,,,,,,,,,777.2861724999966,None,777.2861724999966,None,776.7858353999909,None,j,0.3519098999677226,777.2861724999966,None,,,,,,,a,001,2021_Jun_30_1635,toilet,2021.1.3,99.87755014456572,
0,180,4,-4,1.0,,,,,1,0,1,0,0,17,17,24,,,,,,,,,,,,,,,,,,,,,,,778.6470943999011,None,778.6470943999011,None,778.1467544999905,None,f,0.7827817000215873,778.6470943999011,None,,,,,,,a,001,2021_Jun_30_1635,toilet,2021.1.3,99.87755014456572,
180,180,-4,4,0.97,,,,,1,0,1,0,0,18,18,30,,,,,,,,,,,,,,,,,,,,,,,780.4383119998965,None,780.4383119998965,None,779.9379736999981,None,f,0.8955100999446586,780.4383119998965,None,,,,,,,a,001,2021_Jun_30_1635,toilet,2021.1.3,99.87755014456572,
0,0,4,-4,1.03,,,,,1,0,1,0,0,19,19,11,,,,,,,,,,,,,,,,,,,,,,,782.349618999986,None,782.349618999986,None,781.849267099984,None,f,0.6481809000251815,782.349618999986,None,,,,,,,a,001,2021_Jun_30_1635,toilet,2021.1.3,99.87755014456572,
180,0,-4,4,0.97,,,,,1,0,1,0,0,20,20,44,,,,,,,,,,,,,,,,,,,,,,,784.0007211999036,None,784.0007211999036,None,783.5003878999269,None,f,0.613056999980472,784.0007211999036,None,,,,,,,a,001,2021_Jun_30_1635,toilet,2021.1.3,99.87755014456572,
0,180,-4,4,0.97,,,,,1,0,1,0,0,21,21,16,,,,,,,,,,,,,,,,,,,,,,,785.6218190999934,None,785.6218190999934,None,785.1214787999634,None,f,0.5601002000039443,785.6218190999934,None,,,,,,,a,001,2021_Jun_30_1635,toilet,2021.1.3,99.87755014456572,
180,0,4,-4,1.0,,,,,1,0,1,0,0,22,22,52,,,,,,,,,,,,,,,,,,,,,,,787.1928811999969,None,787.1928811999969,None,786.6925472998992,None,f,0.6049297000281513,787.1928811999969,None,,,,,,,a,001,2021_Jun_30_1635,toilet,2021.1.3,99.87755014456572,
0,0,4,-4,1.15,,,,,1,0,1,0,0,23,23,13,,,,,,,,,,,,,,,,,,,,,,,788.8140590999974,None,788.8140590999974,None,788.3136791998986,None,f,0.5837975000031292,788.8140590999974,None,,,,,,,a,001,2021_Jun_30_1635,toilet,2021.1.3,99.87755014456572,
0,180,4,-4,0.85,,,,,1,0,1,0,0,24,24,21,,,,,,,,,,,,,,,,,,,,,,,790.4050614999142,None,790.4050614999142,None,789.90472459991,None,j,0.49690729996655136,790.4050614999142,None,,,,,,,a,001,2021_Jun_30_1635,toilet,2021.1.3,99.87755014456572,
180,180,4,-4,1.03,,,,,1,0,1,0,0,25,25,39,,,,,,,,,,,,,,,,,,,,,,,791.9060773999663,None,791.9060773999663,None,791.4057339999126,None,f,0.7397647000616416,791.9060773999663,None,,,,,,,a,001,2021_Jun_30_1635,toilet,2021.1.3,99.87755014456572,
180,0,4,-4,0.85,,,,,1,0,1,0,0,26,26,49,,,,,,,,,,,,,,,,,,,,,,,793.6572662999388,None,793.6572662999388,None,793.1569193999749,None,j,0.4127226999262348,793.6572662999388,None,,,,,,,a,001,2021_Jun_30_1635,toilet,2021.1.3,99.87755014456572,
180,0,4,-4,1.15,,,,,1,0,1,0,0,27,27,55,,,,,,,,,,,,,,,,,,,,,,,795.0882292999886,None,795.0882292999886,None,794.5878918999806,None,f,0.4696337999776006,795.0882292999886,None,,,,,,,a,001,2021_Jun_30_1635,toilet,2021.1.3,99.87755014456572,
180,180,4,-4,1.15,,,,,1,0,1,0,0,28,28,41,,,,,,,,,,,,,,,,,,,,,,,796.5692344999406,None,796.5692344999406,None,796.0588953999104,None,f,0.5086256999056786,796.5692344999406,None,,,,,,,a,001,2021_Jun_30_1635,toilet,2021.1.3,99.87755014456572,
180,0,-4,4,1.06,,,,,1,0,1,0,0,29,29,47,,,,,,,,,,,,,,,,,,,,,,,798.0902674999088,None,798.0902674999088,None,797.5899246999761,None,j,0.4274524999782443,798.0902674999088,None,,,,,,,a,001,2021_Jun_30_1635,toilet,2021.1.3,99.87755014456572,
0,0,-4,4,1.06,,,,,1,0,1,0,0,30,30,5,,,,,,,,,,,,,,,,,,,,,,,799.5212347999914,None,799.5212347999914,None,799.0208930999506,None,j,0.5487569000106305,799.5212347999914,None,,,,,,,a,001,2021_Jun_30_1635,toilet,2021.1.3,99.87755014456572,
180,180,4,-4,0.97,,,,,1,0,1,0,0,31,31,37,,,,,,,,,,,,,,,,,,,,,,,801.0822927999543,None,801.0822927999543,None,800.5819531999296,None,j,0.5877024999354035,801.0822927999543,None,,,,,,,a,001,2021_Jun_30_1635,toilet,2021.1.3,99.87755014456572,
0,0,-4,4,0.85,,,,,1,0,1,0,0,32,32,0,,,,,,,,,,,,,,,,,,,,,,,802.6833751999075,None,802.6833751999075,None,802.1830391999101,None,f,0.45846110000275075,802.6833751999075,None,,,,,,,a,001,2021_Jun_30_1635,toilet,2021.1.3,99.87755014456572,
0,0,4,-4,0.85,,,,,1,0,1,0,0,33,33,7,,,,,,,,,,,,,,,,,,,,,,,804.1544594999868,None,804.1544594999868,None,803.654056899948,None,j,0.45930449990555644,804.1544594999868,None,,,,,,,a,001,2021_Jun_30_1635,toilet,2021.1.3,99.87755014456572,
0,180,-4,4,0.85,,,,,1,0,1,0,0,34,34,14,,,,,,,,,,,,,,,,,,,,,,,805.6153618999524,None,805.6153618999524,None,805.1150263999589,None,f,0.40641579998191446,805.6153618999524,None,,,,,,,a,001,2021_Jun_30_1635,toilet,2021.1.3,99.87755014456572,
180,0,-4,4,0.94,,,,,1,0,1,0,0,35,35,43,,,,,,,,,,,,,,,,,,,,,,,807.0263178999303,None,807.0263178999303,None,806.5259761998896,None,j,1.363510899944231,807.0263178999303,None,,,,,,,a,001,2021_Jun_30_1635,toilet,2021.1.3,99.87755014456572,
180,180,-4,4,0.85,,,,,1,0,1,0,0,36,36,28,,,,,,,,,,,,,,,,,,,,,,,809.4079390999395,None,809.4079390999395,None,808.9075940999901,None,f,0.581851499970071,809.4079390999395,None,,,,,,,a,001,2021_Jun_30_1635,toilet,2021.1.3,99.87755014456572,
180,0,4,-4,1.03,,,,,1,0,1,0,0,37,37,53,,,,,,,,,,,,,,,,,,,,,,,810.9990876999218,None,810.9990876999218,None,810.4987070999341,None,j,0.5907422000309452,810.9990876999218,None,,,,,,,a,001,2021_Jun_30_1635,toilet,2021.1.3,99.87755014456572,
180,0,-4,4,1.15,,,,,1,0,1,0,0,38,38,48,,,,,,,,,,,,,,,,,,,,,,,812.6000961998943,None,812.6000961998943,None,812.0997563999845,None,j,0.7496501000132412,812.6000961998943,None,,,,,,,a,001,2021_Jun_30_1635,toilet,2021.1.3,99.87755014456572,
0,0,4,-4,0.94,,,,,1,0,1,0,0,39,39,8,,,,,,,,,,,,,,,,,,,,,,,814.3512857999885,None,814.3512857999885,None,813.8509402999189,None,f,0.9666705999989063,814.3512857999885,None,,,,,,,a,001,2021_Jun_30_1635,toilet,2021.1.3,99.87755014456572,
0,180,4,-4,0.97,,,,,1,0,1,0,0,40,40,23,,,,,,,,,,,,,,,,,,,,,,,816.332621099893,None,816.332621099893,None,815.8327991999686,None,j,0.5532532000215724,816.332621099893,None,,,,,,,a,001,2021_Jun_30_1635,toilet,2021.1.3,99.87755014456572,
0,180,-4,4,1.0,,,,,1,0,1,0,0,41,41,17,,,,,,,,,,,,,,,,,,,,,,,817.9036868999247,None,817.9036868999247,None,817.4034367999993,None,f,0.7101503999438137,817.9036868999247,None,,,,,,,a,001,2021_Jun_30_1635,toilet,2021.1.3,99.87755014456572,
180,0,4,-4,0.94,,,,,1,0,1,0,0,42,42,50,,,,,,,,,,,,,,,,,,,,,,,819.6248495999025,None,819.6248495999025,None,819.1245127998991,None,j,0.4929924999596551,819.6248495999025,None,,,,,,,a,001,2021_Jun_30_1635,toilet,2021.1.3,99.87755014456572,
180,180,4,-4,1.06,,,,,1,0,1,0,0,43,43,40,,,,,,,,,,,,,,,,,,,,,,,821.1258654999547,None,821.1258654999547,None,820.6255326999817,None,f,0.5280701998854056,821.1258654999547,None,,,,,,,a,001,2021_Jun_30_1635,toilet,2021.1.3,99.87755014456572,
180,0,4,-4,1.06,,,,,1,0,1,0,0,44,44,54,,,,,,,,,,,,,,,,,,,,,,,822.6669070998905,None,822.6669070998905,None,822.166577899945,None,f,0.9229106999700889,822.6669070998905,None,,,,,,,a,001,2021_Jun_30_1635,toilet,2021.1.3,99.87755014456572,
0,0,-4,4,1.03,,,,,1,0,1,0,0,45,45,4,,,,,,,,,,,,,,,,,,,,,,,824.5982950999169,None,824.5982950999169,None,824.0978804999031,None,j,0.49549910007044673,824.5982950999169,None,,,,,,,a,001,2021_Jun_30_1635,toilet,2021.1.3,99.87755014456572,
0,0,4,-4,0.97,,,,,1,0,1,0,0,46,46,9,,,,,,,,,,,,,,,,,,,,,,,826.0993210999295,None,826.0993210999295,None,825.5989335998893,None,j,0.5784116999711841,826.0993210999295,None,,,,,,,a,001,2021_Jun_30_1635,toilet,2021.1.3,99.87755014456572,
0,180,-4,4,1.03,,,,,1,0,1,0,0,47,47,18,,,,,,,,,,,,,,,,,,,,,,,827.6803056999343,None,827.6803056999343,None,827.1799710999476,None,f,0.5174256999744102,827.6803056999343,None,,,,,,,a,001,2021_Jun_30_1635,toilet,2021.1.3,99.87755014456572,
0,0,-4,4,0.94,,,,,1,0,1,0,0,48,48,1,,,,,,,,,,,,,,,,,,,,,,,829.2013354999945,None,829.2013354999945,None,828.7009985999903,None,f,0.9484159999992698,829.2013354999945,None,,,,,,,a,001,2021_Jun_30_1635,toilet,2021.1.3,99.87755014456572,
0,180,4,-4,0.94,,,,,1,0,1,0,0,49,49,22,,,,,,,,,,,,,,,,,,,,,,,831.1526545999805,None,831.1526545999805,None,830.6523195999907,None,j,0.46908020006958395,831.1526545999805,None,,,,,,,a,001,2021_Jun_30_1635,toilet,2021.1.3,99.87755014456572,
180,0,4,-4,0.97,,,,,1,0,1,0,0,50,50,51,,,,,,,,,,,,,,,,,,,,,,,832.6237426999724,None,832.6237426999724,None,832.1233134999638,None,f,0.6461419999832287,832.6237426999724,None,,,,,,,a,001,2021_Jun_30_1635,toilet,2021.1.3,99.87755014456572,
180,180,-4,4,0.94,,,,,1,0,1,0,0,51,51,29,,,,,,,,,,,,,,,,,,,,,,,834.2747756999452,None,834.2747756999452,None,833.7844816999277,None,f,0.5789635999826714,834.2747756999452,None,,,,,,,a,001,2021_Jun_30_1635,toilet,2021.1.3,99.87755014456572,
180,180,4,-4,1.0,,,,,1,0,1,0,0,52,52,38,,,,,,,,,,,,,,,,,,,,,,,835.8558655999368,None,835.8558655999368,None,835.3555043999804,None,f,0.6139834000496194,835.8558655999368,None,,,,,,,a,001,2021_Jun_30_1635,toilet,2021.1.3,99.87755014456572,
180,180,4,-4,0.94,,,,,1,0,1,0,0,53,53,36,,,,,,,,,,,,,,,,,,,,,,,837.4769620998995,None,837.4769620998995,None,836.976602199953,None,j,0.6728722000261769,837.4769620998995,None,,,,,,,a,001,2021_Jun_30_1635,toilet,2021.1.3,99.87755014456572,
180,180,-4,4,1.0,,,,,1,0,1,0,0,54,54,31,,,,,,,,,,,,,,,,,,,,,,,839.1680916999467,None,839.1680916999467,None,838.6677492999006,None,f,0.4697292000055313,839.1680916999467,None,,,,,,,a,001,2021_Jun_30_1635,toilet,2021.1.3,99.87755014456572,
0,180,-4,4,1.15,,,,,1,0,1,0,0,55,55,20,,,,,,,,,,,,,,,,,,,,,,,840.6491305999225,None,840.6491305999225,None,840.1487691999646,None,j,0.5887015000917017,840.6491305999225,None,,,,,,,a,001,2021_Jun_30_1635,toilet,2021.1.3,99.87755014456572,
180,0,-4,4,1.0,,,,,1,0,1,0,1,0,56,45,,,,,,,,,,,,,,,,,,,,,,,842.2401722999057,None,842.2401722999057,None,841.7498391999397,None,f,1.1895803000079468,842.2401722999057,None,,,,,,,a,001,2021_Jun_30_1635,toilet,2021.1.3,99.87755014456572,
180,180,4,-4,1.0,,,,,1,0,1,0,1,1,57,38,,,,,,,,,,,,,,,,,,,,,,,844.4316521999426,None,844.4316521999426,None,843.9313108999049,None,f,0.4862190999556333,844.4316521999426,None,,,,,,,a,001,2021_Jun_30_1635,toilet,2021.1.3,99.87755014456572,
180,180,4,-4,0.97,,,,,1,0,1,0,1,2,58,37,,,,,,,,,,,,,,,,,,,,,,,845.9326707998989,None,845.9326707998989,None,845.4323325000005,None,f,0.5532082000281662,845.9326707998989,None,,,,,,,a,001,2021_Jun_30_1635,toilet,2021.1.3,99.87755014456572,
0,180,-4,4,1.15,,,,,1,0,1,0,1,3,59,20,,,,,,,,,,,,,,,,,,,,,,,847.5138187999837,None,847.5138187999837,None,847.0134021999547,None,j,0.44420149992220104,847.5138187999837,None,,,,,,,a,001,2021_Jun_30_1635,toilet,2021.1.3,99.87755014456572,
180,180,4,-4,0.94,,,,,1,0,1,0,1,4,60,36,,,,,,,,,,,,,,,,,,,,,,,848.9847673999611,None,848.9847673999611,None,848.4843954999233,None,j,0.5249413000419736,848.9847673999611,None,,,,,,,a,001,2021_Jun_30_1635,toilet,2021.1.3,99.87755014456572,
180,0,4,-4,0.94,,,,,1,0,1,0,1,5,61,50,,,,,,,,,,,,,,,,,,,,,,,850.515774599975,None,850.515774599975,None,850.0154380999738,None,j,1.20208369998727,850.515774599975,None,,,,,,,a,001,2021_Jun_30_1635,toilet,2021.1.3,99.87755014456572,
0,180,-4,4,1.06,,,,,1,0,1,0,1,6,62,19,,,,,,,,,,,,,,,,,,,,,,,852.7272721999325,None,852.7272721999325,None,852.2269400999648,None,j,0.5265915999189019,852.7272721999325,None,,,,,,,a,001,2021_Jun_30_1635,toilet,2021.1.3,99.87755014456572,
0,180,4,-4,1.03,,,,,1,0,1,0,1,7,63,25,,,,,,,,,,,,,,,,,,,,,,,854.268323999946,None,854.268323999946,None,853.7679915999761,None,f,2.1373496000887826,854.268323999946,None,,,,,,,a,001,2021_Jun_30_1635,toilet,2021.1.3,99.87755014456572,
180,0,4,-4,0.85,,,,,1,0,1,0,1,8,64,49,,,,,,,,,,,,,,,,,,,,,,,857.4104407998966,None,857.4104407998966,None,856.9101031000027,None,j,0.5472961999475956,857.4104407998966,None,,,,,,,a,001,2021_Jun_30_1635,toilet,2021.1.3,99.87755014456572,
180,0,4,-4,1.15,,,,,1,0,1,0,1,9,65,55,,,,,,,,,,,,,,,,,,,,,,,858.9614997999743,None,858.9614997999743,None,858.4611554999137,None,f,0.5163695000810549,858.9614997999743,None,,,,,,,a,001,2021_Jun_30_1635,toilet,2021.1.3,99.87755014456572,
0,180,-4,4,0.94,,,,,1,0,1,0,1,10,66,15,,,,,,,,,,,,,,,,,,,,,,,860.5025377999991,None,860.5025377999991,None,860.002196699963,None,f,0.8152911000652239,860.5025377999991,None,,,,,,,a,001,2021_Jun_30_1635,toilet,2021.1.3,99.87755014456572,
180,0,4,-4,1.0,,,,,1,0,1,0,1,11,67,52,,,,,,,,,,,,,,,,,,,,,,,862.3238545999629,None,862.3238545999629,None,861.823534599971,None,f,1.633943699998781,862.3238545999629,None,,,,,,,a,001,2021_Jun_30_1635,toilet,2021.1.3,99.87755014456572,
180,180,4,-4,0.85,,,,,1,0,1,0,1,12,68,35,,,,,,,,,,,,,,,,,,,,,,,864.9655589999165,None,864.9655589999165,None,864.4652226999169,None,j,0.6242306999629363,864.9655589999165,None,,,,,,,a,001,2021_Jun_30_1635,toilet,2021.1.3,99.87755014456572,
0,180,-4,4,0.85,,,,,1,0,1,0,1,13,69,14,,,,,,,,,,,,,,,,,,,,,,,866.5966648999602,None,866.5966648999602,None,866.0963272999506,None,f,0.5931454000528902,866.5966648999602,None,,,,,,,a,001,2021_Jun_30_1635,toilet,2021.1.3,99.87755014456572,
0,0,-4,4,1.15,,,,,1,0,1,0,1,14,70,6,,,,,,,,,,,,,,,,,,,,,,,868.2077557999874,None,868.2077557999874,None,867.707415599958,None,j,0.5500150000443682,868.2077557999874,None,,,,,,,a,001,2021_Jun_30_1635,toilet,2021.1.3,99.87755014456572,
0,0,-4,4,1.06,,,,,1,0,1,0,1,15,71,5,,,,,,,,,,,,,,,,,,,,,,,869.7788485999918,None,869.7788485999918,None,869.2784876999212,None,j,0.48302269994746894,869.7788485999918,None,,,,,,,a,001,2021_Jun_30_1635,toilet,2021.1.3,99.87755014456572,
180,0,-4,4,0.85,,,,,1,0,1,0,1,16,72,42,,,,,,,,,,,,,,,,,,,,,,,871.279841599986,None,871.279841599986,None,870.7795375999995,None,f,0.48587850003968924,871.279841599986,None,,,,,,,a,001,2021_Jun_30_1635,toilet,2021.1.3,99.87755014456572,
180,180,4,-4,1.03,,,,,1,0,1,0,1,17,73,39,,,,,,,,,,,,,,,,,,,,,,,872.7708473999519,None,872.7708473999519,None,872.2705079999287,None,f,0.5310237999074161,872.7708473999519,None,,,,,,,a,001,2021_Jun_30_1635,toilet,2021.1.3,99.87755014456572,
0,180,4,-4,0.94,,,,,1,0,1,0,1,18,74,22,,,,,,,,,,,,,,,,,,,,,,,874.3118881999981,None,874.3118881999981,None,873.8115501999855,None,j,0.5899728999938816,874.3118881999981,None,,,,,,,a,001,2021_Jun_30_1635,toilet,2021.1.3,99.87755014456572,
0,0,-4,4,1.03,,,,,1,0,1,0,1,19,75,4,,,,,,,,,,,,,,,,,,,,,,,875.9129781998927,None,875.9129781998927,None,875.4126313999295,None,j,0.5887044999981299,875.9129781998927,None,,,,,,,a,001,2021_Jun_30_1635,toilet,2021.1.3,99.87755014456572,
180,0,-4,4,1.06,,,,,1,0,1,0,1,20,76,47,,,,,,,,,,,,,,,,,,,,,,,877.5041450998979,None,877.5041450998979,None,877.0037505999207,None,j,0.4855814999900758,877.5041450998979,None,,,,,,,a,001,2021_Jun_30_1635,toilet,2021.1.3,99.87755014456572,
180,0,-4,4,0.94,,,,,1,0,1,0,1,21,77,43,,,,,,,,,,,,,,,,,,,,,,,878.9950647999067,None,878.9950647999067,None,878.4947231999831,None,j,0.5946482999715954,878.9950647999067,None,,,,,,,a,001,2021_Jun_30_1635,toilet,2021.1.3,99.87755014456572,
0,0,-4,4,0.94,,,,,1,0,1,0,1,22,78,1,,,,,,,,,,,,,,,,,,,,,,,880.5961466999725,None,880.5961466999725,None,880.0958082999568,None,f,0.43365130003076047,880.5961466999725,None,,,,,,,a,001,2021_Jun_30_1635,toilet,2021.1.3,99.87755014456572,
180,180,-4,4,1.15,,,,,1,0,1,0,1,23,79,34,,,,,,,,,,,,,,,,,,,,,,,882.0471304999664,None,882.0471304999664,None,881.5467906999402,None,j,0.5026404000818729,882.0471304999664,None,,,,,,,a,001,2021_Jun_30_1635,toilet,2021.1.3,99.87755014456572,
180,0,-4,4,0.97,,,,,1,0,1,0,1,24,80,44,,,,,,,,,,,,,,,,,,,,,,,883.5681690999772,None,883.5681690999772,None,883.0678242999129,None,f,0.5016409000381827,883.5681690999772,None,,,,,,,a,001,2021_Jun_30_1635,toilet,2021.1.3,99.87755014456572,
180,180,-4,4,0.97,,,,,1,0,1,0,1,25,81,30,,,,,,,,,,,,,,,,,,,,,,,885.0792791999411,None,885.0792791999411,None,884.5789465999696,None,f,0.7184103999752551,885.0792791999411,None,,,,,,,a,001,2021_Jun_30_1635,toilet,2021.1.3,99.87755014456572,
0,180,-4,4,1.03,,,,,1,0,1,0,1,26,82,18,,,,,,,,,,,,,,,,,,,,,,,886.8003519999329,None,886.8003519999329,None,886.3000086999964,None,j,0.8216688999673352,886.8003519999329,None,,,,,,,a,001,2021_Jun_30_1635,toilet,2021.1.3,99.87755014456572,
180,0,4,-4,1.06,,,,,1,0,1,0,1,27,83,54,,,,,,,,,,,,,,,,,,,,,,,888.6215832999442,None,888.6215832999442,None,888.121242199908,None,f,0.6481546999420971,888.6215832999442,None,,,,,,,a,001,2021_Jun_30_1635,toilet,2021.1.3,99.87755014456572,
0,180,4,-4,0.97,,,,,1,0,1,0,1,28,84,23,,,,,,,,,,,,,,,,,,,,,,,890.2827053999063,None,890.2827053999063,None,889.7823723999318,None,j,0.603005800046958,890.2827053999063,None,,,,,,,a,001,2021_Jun_30_1635,toilet,2021.1.3,99.87755014456572,
180,180,-4,4,1.03,,,,,1,0,1,0,1,29,85,32,,,,,,,,,,,,,,,,,,,,,,,891.8938895999454,None,891.8938895999454,None,891.3934620999498,None,f,0.7038086999673396,891.8938895999454,None,,,,,,,a,001,2021_Jun_30_1635,toilet,2021.1.3,99.87755014456572,
0,180,4,-4,0.85,,,,,1,0,1,0,1,30,86,21,,,,,,,,,,,,,,,,,,,,,,,893.6149644999532,None,893.6149644999532,None,893.114629699965,None,j,0.47071600006893277,893.6149644999532,None,,,,,,,a,001,2021_Jun_30_1635,toilet,2021.1.3,99.87755014456572,
0,0,4,-4,0.94,,,,,1,0,1,0,1,31,87,8,,,,,,,,,,,,,,,,,,,,,,,895.0859795999713,None,895.0859795999713,None,894.5856190999039,None,j,0.5038005000678822,895.0859795999713,None,,,,,,,a,001,2021_Jun_30_1635,toilet,2021.1.3,99.87755014456572,
0,0,4,-4,1.03,,,,,1,0,1,0,1,32,88,11,,,,,,,,,,,,,,,,,,,,,,,896.6069890999934,None,896.6069890999934,None,896.106650199974,None,f,0.5348299000179395,896.6069890999934,None,,,,,,,a,001,2021_Jun_30_1635,toilet,2021.1.3,99.87755014456572,
180,0,-4,4,1.03,,,,,1,0,1,0,1,33,89,46,,,,,,,,,,,,,,,,,,,,,,,898.1680494999746,None,898.1680494999746,None,897.6677086999407,None,j,0.5576779000693932,898.1680494999746,None,,,,,,,a,001,2021_Jun_30_1635,toilet,2021.1.3,99.87755014456572,
180,180,4,-4,1.06,,,,,1,0,1,0,1,34,90,40,,,,,,,,,,,,,,,,,,,,,,,899.7291421999689,None,899.7291421999689,None,899.2388660999713,None,f,0.5807134000351653,899.7291421999689,None,,,,,,,a,001,2021_Jun_30_1635,toilet,2021.1.3,99.87755014456572,
0,0,-4,4,0.97,,,,,1,0,1,0,1,35,91,2,,,,,,,,,,,,,,,,,,,,,,,901.3101750999922,None,901.3101750999922,None,900.809836099972,None,f,0.5994981999974698,901.3101750999922,None,,,,,,,a,001,2021_Jun_30_1635,toilet,2021.1.3,99.87755014456572,
0,180,4,-4,1.15,,,,,1,0,1,0,1,36,92,27,,,,,,,,,,,,,,,,,,,,,,,902.9112587999552,None,902.9112587999552,None,902.4109224999556,None,f,0.5985701000317931,902.9112587999552,None,,,,,,,a,001,2021_Jun_30_1635,toilet,2021.1.3,99.87755014456572,
180,0,4,-4,1.03,,,,,1,0,1,0,1,37,93,53,,,,,,,,,,,,,,,,,,,,,,,904.5223503999878,None,904.5223503999878,None,904.0220095999539,None,j,0.6673482999904081,904.5223503999878,None,,,,,,,a,001,2021_Jun_30_1635,toilet,2021.1.3,99.87755014456572,
0,0,4,-4,0.85,,,,,1,0,1,0,1,38,94,7,,,,,,,,,,,,,,,,,,,,,,,906.1935873999028,None,906.1935873999028,None,905.6931460999185,None,j,0.5642444000113755,906.1935873999028,None,,,,,,,a,001,2021_Jun_30_1635,toilet,2021.1.3,99.87755014456572,
0,180,-4,4,0.97,,,,,1,0,1,0,1,39,95,16,,,,,,,,,,,,,,,,,,,,,,,907.7745735999197,None,907.7745735999197,None,907.2743081999943,None,f,0.5513264999026433,907.7745735999197,None,,,,,,,a,001,2021_Jun_30_1635,toilet,2021.1.3,99.87755014456572,
0,180,-4,4,1.0,,,,,1,0,1,0,1,40,96,17,,,,,,,,,,,,,,,,,,,,,,,909.3256057999097,None,909.3256057999097,None,908.8252763999626,None,f,0.5842311000451446,909.3256057999097,None,,,,,,,a,001,2021_Jun_30_1635,toilet,2021.1.3,99.87755014456572,
0,180,4,-4,1.06,,,,,1,0,1,0,1,41,97,26,,,,,,,,,,,,,,,,,,,,,,,910.9166837999364,None,910.9166837999364,None,910.4163433999056,None,f,0.6410730999195948,910.9166837999364,None,,,,,,,a,001,2021_Jun_30_1635,toilet,2021.1.3,99.87755014456572,
180,180,-4,4,1.0,,,,,1,0,1,0,1,42,98,31,,,,,,,,,,,,,,,,,,,,,,,912.5678057000041,None,912.5678057000041,None,912.0674652999733,None,f,2.477866100030951,912.5678057000041,None,,,,,,,a,001,2021_Jun_30_1635,toilet,2021.1.3,99.87755014456572,
180,180,-4,4,0.85,,,,,1,0,1,0,1,43,99,28,,,,,,,,,,,,,,,,,,,,,,,916.0601634999039,None,916.0601634999039,None,915.5598259998951,None,f,1.6575072000268847,916.0601634999039,None,,,,,,,a,001,2021_Jun_30_1635,toilet,2021.1.3,99.87755014456572,
180,0,-4,4,1.15,,,,,1,0,1,0,1,44,100,48,,,,,,,,,,,,,,,,,,,,,,,918.7219675999368,None,918.7219675999368,None,918.2216309999349,None,j,0.5158345999661833,918.7219675999368,None,,,,,,,a,001,2021_Jun_30_1635,toilet,2021.1.3,99.87755014456572,
0,0,-4,4,1.0,,,,,1,0,1,0,1,45,101,3,,,,,,,,,,,,,,,,,,,,,,,920.2540406999178,None,920.2540406999178,None,919.7526665999321,None,j,0.9036701999139041,920.2540406999178,None,,,,,,,a,001,2021_Jun_30_1635,toilet,2021.1.3,99.87755014456572,
0,0,4,-4,0.97,,,,,1,0,1,0,1,46,102,9,,,,,,,,,,,,,,,,,,,,,,,922.1643175999634,None,922.1643175999634,None,921.6639804999577,None,f,0.6093464000150561,922.1643175999634,None,,,,,,,a,001,2021_Jun_30_1635,toilet,2021.1.3,99.87755014456572,
180,0,4,-4,0.97,,,,,1,0,1,0,1,47,103,51,,,,,,,,,,,,,,,,,,,,,,,923.7753952998901,None,923.7753952998901,None,923.2750557999825,None,j,0.9023031999822706,923.7753952998901,None,,,,,,,a,001,2021_Jun_30_1635,toilet,2021.1.3,99.87755014456572,
0,0,4,-4,1.0,,,,,1,0,1,0,1,48,104,10,,,,,,,,,,,,,,,,,,,,,,,925.686691199895,None,925.686691199895,None,925.186347699957,None,j,0.5110361999832094,925.686691199895,None,,,,,,,a,001,2021_Jun_30_1635,toilet,2021.1.3,99.87755014456572,
180,180,-4,4,1.06,,,,,1,0,1,0,1,49,105,33,,,,,,,,,,,,,,,,,,,,,,,927.2077195999445,None,927.2077195999445,None,926.7073747999966,None,j,1.9660850999644026,927.2077195999445,None,,,,,,,a,001,2021_Jun_30_1635,toilet,2021.1.3,99.87755014456572,
180,180,-4,4,0.94,,,,,1,0,1,0,1,50,106,29,,,,,,,,,,,,,,,,,,,,,,,930.1997324998956,None,930.1997324998956,None,929.699402499944,None,f,0.6059832000173628,930.1997324998956,None,,,,,,,a,001,2021_Jun_30_1635,toilet,2021.1.3,99.87755014456572,
0,0,-4,4,0.85,,,,,1,0,1,0,1,51,107,0,,,,,,,,,,,,,,,,,,,,,,,931.8108347998932,None,931.8108347998932,None,931.3104986998951,None,f,0.5307885999791324,931.8108347998932,None,,,,,,,a,001,2021_Jun_30_1635,toilet,2021.1.3,99.87755014456572,
0,180,4,-4,1.0,,,,,1,0,1,0,1,52,108,24,,,,,,,,,,,,,,,,,,,,,,,933.3418710998958,None,933.3418710998958,None,932.8415342998924,None,j,0.5198745999950916,933.3418710998958,None,,,,,,,a,001,2021_Jun_30_1635,toilet,2021.1.3,99.87755014456572,
180,180,4,-4,1.15,,,,,1,0,1,0,1,53,109,41,,,,,,,,,,,,,,,,,,,,,,,934.8729081999045,None,934.8729081999045,None,934.3725707998965,None,f,0.5087576999794692,934.8729081999045,None,,,,,,,a,001,2021_Jun_30_1635,toilet,2021.1.3,99.87755014456572,
0,0,4,-4,1.15,,,,,1,0,1,0,1,54,110,13,,,,,,,,,,,,,,,,,,,,,,,936.3839360999409,None,936.3839360999409,None,935.883599099936,None,f,0.5177551999222487,936.3839360999409,None,,,,,,,a,001,2021_Jun_30_1635,toilet,2021.1.3,99.87755014456572,
0,0,4,-4,1.06,,,,,1,0,1,0,1,55,111,12,,,,,,,,,,,,,,,,,,,,,,,937.914965499891,None,937.914965499891,None,937.4146339999279,None,j,0.4907373000169173,937.914965499891,None,,,,,,,a,001,2021_Jun_30_1635,toilet,2021.1.3,99.87755014456572,
,,,,,,,,,1,0,1,0,,,,,,,,,,,,,,,,,,,,,,,,,,,,,,,,,,,,,938.4153232999379,None,space,561.1898117999081,938.4153232999379,None,a,001,2021_Jun_30_1635,toilet,2021.1.3,99.87755014456572,
180,0,4,-4,0.97,,,,,2,0,2,0,0,0,0,51,,,,,,,,,,,,,,,,,1499.6154468999011,None,space,1.0136643999721855,1499.6154468999011,None,1501.6568294999888,None,1501.6568294999888,None,1501.1564909999724,None,j,1.020306900027208,1501.6568294999888,None,,,,,,,a,001,2021_Jun_30_1635,toilet,2021.1.3,99.87755014456572,
0,0,-4,4,0.85,,,,,2,0,2,0,0,1,1,0,,,,,,,,,,,,,,,,,,,,,,,1503.6882241999265,None,1503.6882241999265,None,1503.1878858999116,None,f,0.5569227999076247,1503.6882241999265,None,,,,,,,a,001,2021_Jun_30_1635,toilet,2021.1.3,99.87755014456572,
180,180,4,-4,0.85,,,,,2,0,2,0,0,2,2,35,,,,,,,,,,,,,,,,,,,,,,,1505.2592733999481,None,1505.2592733999481,None,1504.758934399928,None,j,0.5857552998932078,1505.2592733999481,None,,,,,,,a,001,2021_Jun_30_1635,toilet,2021.1.3,99.87755014456572,
0,0,-4,4,1.06,,,,,2,0,2,0,0,3,3,5,,,,,,,,,,,,,,,,,,,,,,,1506.8503498999635,None,1506.8503498999635,None,1506.3500095999334,None,j,0.5628770000766963,1506.8503498999635,None,,,,,,,a,001,2021_Jun_30_1635,toilet,2021.1.3,99.87755014456572,
0,0,-4,4,1.15,,,,,2,0,2,0,0,4,4,6,,,,,,,,,,,,,,,,,,,,,,,1508.4214155999944,None,1508.4214155999944,None,1507.9210746999597,None,j,1.4237296000355855,1508.4214155999944,None,,,,,,,a,001,2021_Jun_30_1635,toilet,2021.1.3,99.87755014456572,
0,0,4,-4,1.06,,,,,2,0,2,0,0,5,5,12,,,,,,,,,,,,,,,,,,,,,,,1510.8630706999684,None,1510.8630706999684,None,1510.362810099963,None,f,0.566053600050509,1510.8630706999684,None,,,,,,,a,001,2021_Jun_30_1635,toilet,2021.1.3,99.87755014456572,
180,180,-4,4,1.06,,,,,2,0,2,0,0,6,6,33,,,,,,,,,,,,,,,,,,,,,,,1512.4441436999477,None,1512.4441436999477,None,1511.9438037999207,None,j,0.5688936999067664,1512.4441436999477,None,,,,,,,a,001,2021_Jun_30_1635,toilet,2021.1.3,99.87755014456572,
180,0,4,-4,1.15,,,,,2,0,2,0,0,7,7,55,,,,,,,,,,,,,,,,,,,,,,,1514.015206699958,None,1514.015206699958,None,1513.514865099918,None,f,0.45380990009289235,1514.015206699958,None,,,,,,,a,001,2021_Jun_30_1635,toilet,2021.1.3,99.87755014456572,
0,180,-4,4,1.15,,,,,2,0,2,0,0,8,8,20,,,,,,,,,,,,,,,,,,,,,,,1515.4762016999302,None,1515.4762016999302,None,1514.9758531999541,None,j,0.5289727000053972,1515.4762016999302,None,,,,,,,a,001,2021_Jun_30_1635,toilet,2021.1.3,99.87755014456572,
0,180,-4,4,1.06,,,,,2,0,2,0,0,9,9,19,,,,,,,,,,,,,,,,,,,,,,,1517.0172373999376,None,1517.0172373999376,None,1516.5168956998968,None,j,0.5078770999098197,1517.0172373999376,None,,,,,,,a,001,2021_Jun_30_1635,toilet,2021.1.3,99.87755014456572,
180,180,4,-4,1.0,,,,,2,0,2,0,0,10,10,38,,,,,,,,,,,,,,,,,,,,,,,1518.5383110999828,None,1518.5383110999828,None,1518.0379636998987,None,f,1.2747299999464303,1518.5383110999828,None,,,,,,,a,001,2021_Jun_30_1635,toilet,2021.1.3,99.87755014456572,
0,180,-4,4,0.85,,,,,2,0,2,0,0,11,11,14,,,,,,,,,,,,,,,,,,,,,,,1520.819810399902,None,1520.819810399902,None,1520.3194736998994,None,f,6.209252099972218,1520.819810399902,None,,,,,,,a,001,2021_Jun_30_1635,toilet,2021.1.3,99.87755014456572,
180,180,-4,4,1.15,,,,,2,0,2,0,0,12,12,34,,,,,,,,,,,,,,,,,,,,,,,1528.0347031999845,None,1528.0347031999845,None,1527.534369400004,None,j,1.026537899975665,1528.0347031999845,None,,,,,,,a,001,2021_Jun_30_1635,toilet,2021.1.3,99.87755014456572,
180,0,-4,4,1.06,,,,,2,0,2,0,0,13,13,47,,,,,,,,,,,,,,,,,,,,,,,1530.0760851999512,None,1530.0760851999512,None,1529.5757488999516,None,j,0.6011661998927593,1530.0760851999512,None,,,,,,,a,001,2021_Jun_30_1635,toilet,2021.1.3,99.87755014456572,
180,180,-4,4,0.94,,,,,2,0,2,0,0,14,14,29,,,,,,,,,,,,,,,,,,,,,,,1531.6871857999358,None,1531.6871857999358,None,1531.1868434998905,None,f,0.7339546999428421,1531.6871857999358,None,,,,,,,a,001,2021_Jun_30_1635,toilet,2021.1.3,99.87755014456572,
0,0,4,-4,0.94,,,,,2,0,2,0,0,15,15,8,,,,,,,,,,,,,,,,,,,,,,,1533.4384205999086,None,1533.4384205999086,None,1532.9381065999623,None,j,0.6146250999299809,1533.4384205999086,None,,,,,,,a,001,2021_Jun_30_1635,toilet,2021.1.3,99.87755014456572,
180,180,4,-4,0.94,,,,,2,0,2,0,0,16,16,36,,,,,,,,,,,,,,,,,,,,,,,1535.0694698999869,None,1535.0694698999869,None,1534.56912739994,None,j,1.3036011999938637,1535.0694698999869,None,,,,,,,a,001,2021_Jun_30_1635,toilet,2021.1.3,99.87755014456572,
180,180,-4,4,0.85,,,,,2,0,2,0,0,17,17,28,,,,,,,,,,,,,,,,,,,,,,,1537.3810364999808,None,1537.3810364999808,None,1536.8806941999355,None,f,0.6081447000615299,1537.3810364999808,None,,,,,,,a,001,2021_Jun_30_1635,toilet,2021.1.3,99.87755014456572,
0,0,-4,4,0.97,,,,,2,0,2,0,0,18,18,2,,,,,,,,,,,,,,,,,,,,,,,1539.0021355999634,None,1539.0021355999634,None,1538.5017952999333,None,f,0.8908924000570551,1539.0021355999634,None,,,,,,,a,001,2021_Jun_30_1635,toilet,2021.1.3,99.87755014456572,
180,180,-4,4,0.97,,,,,2,0,2,0,0,19,19,30,,,,,,,,,,,,,,,,,,,,,,,1540.8934335999656,None,1540.8934335999656,None,1540.393084099982,None,f,0.5518204000545666,1540.8934335999656,None,,,,,,,a,001,2021_Jun_30_1635,toilet,2021.1.3,99.87755014456572,
180,180,4,-4,1.15,,,,,2,0,2,0,0,20,20,41,,,,,,,,,,,,,,,,,,,,,,,1542.4544701999985,None,1542.4544701999985,None,1541.9541804000037,None,f,0.5585269000148401,1542.4544701999985,None,,,,,,,a,001,2021_Jun_30_1635,toilet,2021.1.3,99.87755014456572,
180,180,4,-4,1.06,,,,,2,0,2,0,0,21,21,40,,,,,,,,,,,,,,,,,,,,,,,1544.0155286999652,None,1544.0155286999652,None,1543.5151916999603,None,j,0.6615546999964863,1544.0155286999652,None,,,,,,,a,001,2021_Jun_30_1635,toilet,2021.1.3,99.87755014456572,
180,0,-4,4,1.03,,,,,2,0,2,0,0,22,22,46,,,,,,,,,,,,,,,,,,,,,,,1545.6866780999117,None,1545.6866780999117,None,1545.1863254999043,None,j,0.590775299933739,1545.6866780999117,None,,,,,,,a,001,2021_Jun_30_1635,toilet,2021.1.3,99.87755014456572,
0,0,4,-4,1.0,,,,,2,0,2,0,0,23,23,10,,,,,,,,,,,,,,,,,,,,,,,1547.2877715999493,None,1547.2877715999493,None,1546.7874992999714,None,f,0.9253750999923795,1547.2877715999493,None,,,,,,,a,001,2021_Jun_30_1635,toilet,2021.1.3,99.87755014456572,
0,180,-4,4,1.0,,,,,2,0,2,0,0,24,24,17,,,,,,,,,,,,,,,,,,,,,,,1549.2390675999923,None,1549.2390675999923,None,1548.738732400001,None,f,0.8940249000443146,1549.2390675999923,None,,,,,,,a,001,2021_Jun_30_1635,toilet,2021.1.3,99.87755014456572,
0,180,-4,4,0.97,,,,,2,0,2,0,0,25,25,16,,,,,,,,,,,,,,,,,,,,,,,1551.1403775999788,None,1551.1403775999788,None,1550.6400193999289,None,f,0.9606342000188306,1551.1403775999788,None,,,,,,,a,001,2021_Jun_30_1635,toilet,2021.1.3,99.87755014456572,
180,0,-4,4,0.85,,,,,2,0,2,0,0,26,26,42,,,,,,,,,,,,,,,,,,,,,,,1553.101685899892,None,1553.101685899892,None,1552.601345299976,None,f,0.6476952000521123,1553.101685899892,None,,,,,,,a,001,2021_Jun_30_1635,toilet,2021.1.3,99.87755014456572,
0,0,4,-4,0.97,,,,,2,0,2,0,0,27,27,9,,,,,,,,,,,,,,,,,,,,,,,1554.7629019999877,None,1554.7629019999877,None,1554.2624709999654,None,j,0.7142299999250099,1554.7629019999877,None,,,,,,,a,001,2021_Jun_30_1635,toilet,2021.1.3,99.87755014456572,
0,180,4,-4,0.97,,,,,2,0,2,0,0,28,28,23,,,,,,,,,,,,,,,,,,,,,,,1556.493985899957,None,1556.493985899957,None,1555.9936655999627,None,j,0.5029775000875816,1556.493985899957,None,,,,,,,a,001,2021_Jun_30_1635,toilet,2021.1.3,99.87755014456572,
0,0,-4,4,1.03,,,,,2,0,2,0,0,29,29,4,,,,,,,,,,,,,,,,,,,,,,,1558.0050094999606,None,1558.0050094999606,None,1557.5046733999625,None,f,1.1679876000853255,1558.0050094999606,None,,,,,,,a,001,2021_Jun_30_1635,toilet,2021.1.3,99.87755014456572,
0,180,4,-4,1.0,,,,,2,0,2,0,0,30,30,24,,,,,,,,,,,,,,,,,,,,,,,1560.1864888999844,None,1560.1864888999844,None,1559.6861476999475,None,j,0.6346469999989495,1560.1864888999844,None,,,,,,,a,001,2021_Jun_30_1635,toilet,2021.1.3,99.87755014456572,
0,180,4,-4,1.03,,,,,2,0,2,0,0,31,31,25,,,,,,,,,,,,,,,,,,,,,,,1561.8376858999254,None,1561.8376858999254,None,1561.337265499984,None,f,0.48745879996567965,1561.8376858999254,None,,,,,,,a,001,2021_Jun_30_1635,toilet,2021.1.3,99.87755014456572,
0,0,4,-4,1.03,,,,,2,0,2,0,0,32,32,11,,,,,,,,,,,,,,,,,,,,,,,1563.3386666999431,None,1563.3386666999431,None,1562.8383699998958,None,j,0.6183914999710396,1563.3386666999431,None,,,,,,,a,001,2021_Jun_30_1635,toilet,2021.1.3,99.87755014456572,
180,180,-4,4,1.03,,,,,2,0,2,0,0,33,33,32,,,,,,,,,,,,,,,,,,,,,,,1564.9597234999528,None,1564.9597234999528,None,1564.4593827999197,None,j,0.9812640000600368,1564.9597234999528,None,,,,,,,a,001,2021_Jun_30_1635,toilet,2021.1.3,99.87755014456572,
180,0,4,-4,0.85,,,,,2,0,2,0,0,34,34,49,,,,,,,,,,,,,,,,,,,,,,,1566.9410612999927,None,1566.9410612999927,None,1566.44073199993,None,j,0.5520180000457913,1566.9410612999927,None,,,,,,,a,001,2021_Jun_30_1635,toilet,2021.1.3,99.87755014456572,
180,0,4,-4,0.94,,,,,2,0,2,0,0,35,35,50,,,,,,,,,,,,,,,,,,,,,,,1568.512105199974,None,1568.512105199974,None,1568.0117879000027,None,j,0.6129404000239447,1568.512105199974,None,,,,,,,a,001,2021_Jun_30_1635,toilet,2021.1.3,99.87755014456572,
180,0,-4,4,0.94,,,,,2,0,2,0,0,36,36,43,,,,,,,,,,,,,,,,,,,,,,,1570.1333149999846,None,1570.1333149999846,None,1569.6329787999857,None,f,0.49577929999213666,1570.1333149999846,None,,,,,,,a,001,2021_Jun_30_1635,toilet,2021.1.3,99.87755014456572,
180,0,-4,4,1.0,,,,,2,0,2,0,0,37,37,45,,,,,,,,,,,,,,,,,,,,,,,1571.6342445999617,None,1571.6342445999617,None,1571.1339042999316,None,f,0.6107062000082806,1571.6342445999617,None,,,,,,,a,001,2021_Jun_30_1635,toilet,2021.1.3,99.87755014456572,
180,180,4,-4,1.03,,,,,2,0,2,0,0,38,38,39,,,,,,,,,,,,,,,,,,,,,,,1573.245332499966,None,1573.245332499966,None,1572.7449939999497,None,f,0.5837870000395924,1573.245332499966,None,,,,,,,a,001,2021_Jun_30_1635,toilet,2021.1.3,99.87755014456572,
0,180,4,-4,0.85,,,,,2,0,2,0,0,39,39,21,,,,,,,,,,,,,,,,,,,,,,,1574.8464583999012,None,1574.8464583999012,None,1574.3460806999356,None,j,0.5185503999236971,1574.8464583999012,None,,,,,,,a,001,2021_Jun_30_1635,toilet,2021.1.3,99.87755014456572,
0,180,-4,4,0.94,,,,,2,0,2,0,0,40,40,15,,,,,,,,,,,,,,,,,,,,,,,1576.3674598999787,None,1576.3674598999787,None,1575.8772109999554,None,f,0.4695114999776706,1576.3674598999787,None,,,,,,,a,001,2021_Jun_30_1635,toilet,2021.1.3,99.87755014456572,
180,0,4,-4,1.03,,,,,2,0,2,0,0,41,41,53,,,,,,,,,,,,,,,,,,,,,,,1577.8385379998945,None,1577.8385379998945,None,1577.3381960999686,None,j,0.6464011000934988,1577.8385379998945,None,,,,,,,a,001,2021_Jun_30_1635,toilet,2021.1.3,99.87755014456572,
180,180,-4,4,1.0,,,,,2,0,2,0,0,42,42,31,,,,,,,,,,,,,,,,,,,,,,,1579.4895660999464,None,1579.4895660999464,None,1578.989225899917,None,f,0.4994049998931587,1579.4895660999464,None,,,,,,,a,001,2021_Jun_30_1635,toilet,2021.1.3,99.87755014456572,
180,180,4,-4,0.97,,,,,2,0,2,0,0,43,43,37,,,,,,,,,,,,,,,,,,,,,,,1580.9905838998966,None,1580.9905838998966,None,1580.49024929991,None,f,0.4865549999522045,1580.9905838998966,None,,,,,,,a,001,2021_Jun_30_1635,toilet,2021.1.3,99.87755014456572,
0,180,4,-4,0.94,,,,,2,0,2,0,0,44,44,22,,,,,,,,,,,,,,,,,,,,,,,1582.5016059000045,None,1582.5016059000045,None,1582.0012681999942,None,j,0.5275172999827191,1582.5016059000045,None,,,,,,,a,001,2021_Jun_30_1635,toilet,2021.1.3,99.87755014456572,
180,0,4,-4,1.06,,,,,2,0,2,0,0,45,45,54,,,,,,,,,,,,,,,,,,,,,,,1584.0426776999375,None,1584.0426776999375,None,1583.5423145999666,None,f,0.4902609999990091,1584.0426776999375,None,,,,,,,a,001,2021_Jun_30_1635,toilet,2021.1.3,99.87755014456572,
180,0,-4,4,0.97,,,,,2,0,2,0,0,46,46,44,,,,,,,,,,,,,,,,,,,,,,,1585.5337351999478,None,1585.5337351999478,None,1585.0334185999818,None,f,0.423299300018698,1585.5337351999478,None,,,,,,,a,001,2021_Jun_30_1635,toilet,2021.1.3,99.87755014456572,
0,0,-4,4,1.0,,,,,2,0,2,0,0,47,47,3,,,,,,,,,,,,,,,,,,,,,,,1586.964630399947,None,1586.964630399947,None,1586.4642911999254,None,j,0.4643004999961704,1586.964630399947,None,,,,,,,a,001,2021_Jun_30_1635,toilet,2021.1.3,99.87755014456572,
0,0,-4,4,0.94,,,,,2,0,2,0,0,48,48,1,,,,,,,,,,,,,,,,,,,,,,,1588.4356294999598,None,1588.4356294999598,None,1587.9352851998992,None,f,0.5775092000840232,1588.4356294999598,None,,,,,,,a,001,2021_Jun_30_1635,toilet,2021.1.3,99.87755014456572,
0,180,4,-4,1.06,,,,,2,0,2,0,0,49,49,26,,,,,,,,,,,,,,,,,,,,,,,1590.0267046999652,None,1590.0267046999652,None,1589.526370699983,None,f,0.45831230003386736,1590.0267046999652,None,,,,,,,a,001,2021_Jun_30_1635,toilet,2021.1.3,99.87755014456572,
0,180,-4,4,1.03,,,,,2,0,2,0,0,50,50,18,,,,,,,,,,,,,,,,,,,,,,,1591.4977054999908,None,1591.4977054999908,None,1590.9974456999917,None,j,0.47524050006177276,1591.4977054999908,None,,,,,,,a,001,2021_Jun_30_1635,toilet,2021.1.3,99.87755014456572,
0,0,4,-4,0.85,,,,,2,0,2,0,0,51,51,7,,,,,,,,,,,,,,,,,,,,,,,1592.978744299966,None,1592.978744299966,None,1592.4784544999711,None,j,0.6101763000478968,1592.978744299966,None,,,,,,,a,001,2021_Jun_30_1635,toilet,2021.1.3,99.87755014456572,
180,0,-4,4,1.15,,,,,2,0,2,0,0,52,52,48,,,,,,,,,,,,,,,,,,,,,,,1594.5898029999807,None,1594.5898029999807,None,1594.0894596999278,None,j,0.47114709997549653,1594.5898029999807,None,,,,,,,a,001,2021_Jun_30_1635,toilet,2021.1.3,99.87755014456572,
0,180,4,-4,1.15,,,,,2,0,2,0,0,53,53,27,,,,,,,,,,,,,,,,,,,,,,,1596.0607931999257,None,1596.0607931999257,None,1595.5604675998911,None,f,0.4883663000073284,1596.0607931999257,None,,,,,,,a,001,2021_Jun_30_1635,toilet,2021.1.3,99.87755014456572,
0,0,4,-4,1.15,,,,,2,0,2,0,0,54,54,13,,,,,,,,,,,,,,,,,,,,,,,1597.561816399917,None,1597.561816399917,None,1597.061469499953,None,f,0.5711855000117794,1597.561816399917,None,,,,,,,a,001,2021_Jun_30_1635,toilet,2021.1.3,99.87755014456572,
180,0,4,-4,1.0,,,,,2,0,2,0,0,55,55,52,,,,,,,,,,,,,,,,,,,,,,,1599.1329700999195,None,1599.1329700999195,None,1598.632537700003,None,f,0.6641211999813095,1599.1329700999195,None,,,,,,,a,001,2021_Jun_30_1635,toilet,2021.1.3,99.87755014456572,
0,0,4,-4,0.97,,,,,2,0,2,0,1,0,56,9,,,,,,,,,,,,,,,,,,,,,,,1600.8140131999971,None,1600.8140131999971,None,1600.3137161999475,None,j,0.6469300000462681,1600.8140131999971,None,,,,,,,a,001,2021_Jun_30_1635,toilet,2021.1.3,99.87755014456572,
180,180,4,-4,1.15,,,,,2,0,2,0,1,1,57,41,,,,,,,,,,,,,,,,,,,,,,,1602.4651391999796,None,1602.4651391999796,None,1601.9647929999046,None,f,0.48385040007997304,1602.4651391999796,None,,,,,,,a,001,2021_Jun_30_1635,toilet,2021.1.3,99.87755014456572,
0,180,-4,4,1.03,,,,,2,0,2,0,1,2,58,18,,,,,,,,,,,,,,,,,,,,,,,1603.9561494999798,None,1603.9561494999798,None,1603.455807399936,None,j,0.8169270000653341,1603.9561494999798,None,,,,,,,a,001,2021_Jun_30_1635,toilet,2021.1.3,99.87755014456572,
180,180,-4,4,1.03,,,,,2,0,2,0,1,3,59,32,,,,,,,,,,,,,,,,,,,,,,,1605.7973959998926,None,1605.7973959998926,None,1605.2970534999622,None,j,0.495709800045006,1605.7973959998926,None,,,,,,,a,001,2021_Jun_30_1635,toilet,2021.1.3,99.87755014456572,
180,0,4,-4,1.06,,,,,2,0,2,0,1,4,60,54,,,,,,,,,,,,,,,,,,,,,,,1607.3084246999351,None,1607.3084246999351,None,1606.808151199948,None,f,0.45659279997926205,1607.3084246999351,None,,,,,,,a,001,2021_Jun_30_1635,toilet,2021.1.3,99.87755014456572,
180,180,-4,4,1.0,,,,,2,0,2,0,1,5,61,31,,,,,,,,,,,,,,,,,,,,,,,1608.7794097999576,None,1608.7794097999576,None,1608.279087599949,None,j,0.8095331001095474,1608.7794097999576,None,,,,,,,a,001,2021_Jun_30_1635,toilet,2021.1.3,99.87755014456572,
0,180,-4,4,0.97,,,,,2,0,2,0,1,6,62,16,,,,,,,,,,,,,,,,,,,,,,,1610.5906411999604,None,1610.5906411999604,None,1610.0903086999897,None,f,0.4544292000355199,1610.5906411999604,None,,,,,,,a,001,2021_Jun_30_1635,toilet,2021.1.3,99.87755014456572,
180,0,4,-4,1.15,,,,,2,0,2,0,1,7,63,55,,,,,,,,,,,,,,,,,,,,,,,1612.0616343999282,None,1612.0616343999282,None,1611.5613346999744,None,f,0.5193781999405473,1612.0616343999282,None,,,,,,,a,001,2021_Jun_30_1635,toilet,2021.1.3,99.87755014456572,
0,180,4,-4,0.85,,,,,2,0,2,0,1,8,64,21,,,,,,,,,,,,,,,,,,,,,,,1613.5927589999046,None,1613.5927589999046,None,1613.0923392999684,None,j,0.42827949998900294,1613.5927589999046,None,,,,,,,a,001,2021_Jun_30_1635,toilet,2021.1.3,99.87755014456572,
180,0,4,-4,0.85,,,,,2,0,2,0,1,9,65,49,,,,,,,,,,,,,,,,,,,,,,,1615.0336689999094,None,1615.0336689999094,None,1614.5333126999903,None,j,1.2752624999266118,1615.0336689999094,None,,,,,,,a,001,2021_Jun_30_1635,toilet,2021.1.3,99.87755014456572,
0,180,4,-4,0.97,,,,,2,0,2,0,1,10,66,23,,,,,,,,,,,,,,,,,,,,,,,1617.3151966999285,None,1617.3151966999285,None,1616.814852599986,None,j,0.5618378999643028,1617.3151966999285,None,,,,,,,a,001,2021_Jun_30_1635,toilet,2021.1.3,99.87755014456572,
180,180,-4,4,0.94,,,,,2,0,2,0,1,11,67,29,,,,,,,,,,,,,,,,,,,,,,,1618.8862702999031,None,1618.8862702999031,None,1618.3859235999407,None,f,0.5907751000486314,1618.8862702999031,None,,,,,,,a,001,2021_Jun_30_1635,toilet,2021.1.3,99.87755014456572,
0,0,4,-4,0.85,,,,,2,0,2,0,1,12,68,7,,,,,,,,,,,,,,,,,,,,,,,1620.4973515999736,None,1620.4973515999736,None,1619.9970138999633,None,j,0.4357169000431895,1620.4973515999736,None,,,,,,,a,001,2021_Jun_30_1635,toilet,2021.1.3,99.87755014456572,
0,0,-4,4,1.15,,,,,2,0,2,0,1,13,69,6,,,,,,,,,,,,,,,,,,,,,,,1621.948371999897,None,1621.948371999897,None,1621.4480006999802,None,j,0.4566207999596372,1621.948371999897,None,,,,,,,a,001,2021_Jun_30_1635,toilet,2021.1.3,99.87755014456572,
180,0,-4,4,0.85,,,,,2,0,2,0,1,14,70,42,,,,,,,,,,,,,,,,,,,,,,,1623.4193297999445,None,1623.4193297999445,None,1622.9189989999868,None,f,0.45759169990196824,1623.4193297999445,None,,,,,,,a,001,2021_Jun_30_1635,toilet,2021.1.3,99.87755014456572,
0,0,-4,4,0.97,,,,,2,0,2,0,1,15,71,2,,,,,,,,,,,,,,,,,,,,,,,1624.8803200999973,None,1624.8803200999973,None,1624.3799846000038,None,f,1.0285869999788702,1624.8803200999973,None,,,,,,,a,001,2021_Jun_30_1635,toilet,2021.1.3,99.87755014456572,
180,180,4,-4,0.94,,,,,2,0,2,0,1,16,72,36,,,,,,,,,,,,,,,,,,,,,,,1626.9116962999105,None,1626.9116962999105,None,1626.4113938999362,None,j,0.45339709997642785,1626.9116962999105,None,,,,,,,a,001,2021_Jun_30_1635,toilet,2021.1.3,99.87755014456572,
0,0,4,-4,1.0,,,,,2,0,2,0,1,17,73,10,,,,,,,,,,,,,,,,,,,,,,,1628.3727087998996,None,1628.3727087998996,None,1627.882447999902,None,f,0.5123942999634892,1628.3727087998996,None,,,,,,,a,001,2021_Jun_30_1635,toilet,2021.1.3,99.87755014456572,
0,0,4,-4,1.06,,,,,2,0,2,0,1,18,74,12,,,,,,,,,,,,,,,,,,,,,,,1629.9037264999934,None,1629.9037264999934,None,1629.4034239999019,None,f,1.0771251000696793,1629.9037264999934,None,,,,,,,a,001,2021_Jun_30_1635,toilet,2021.1.3,99.87755014456572,
0,180,4,-4,0.94,,,,,2,0,2,0,1,19,75,22,,,,,,,,,,,,,,,,,,,,,,,1631.9851382999914,None,1631.9851382999914,None,1631.4848009999841,None,j,0.8198534999974072,1631.9851382999914,None,,,,,,,a,001,2021_Jun_30_1635,toilet,2021.1.3,99.87755014456572,
0,0,-4,4,0.85,,,,,2,0,2,0,1,20,76,0,,,,,,,,,,,,,,,,,,,,,,,1633.8163723999169,None,1633.8163723999169,None,1633.3160389999393,None,f,2.3486480999272317,1633.8163723999169,None,,,,,,,a,001,2021_Jun_30_1635,toilet,2021.1.3,99.87755014456572,
180,0,-4,4,1.15,,,,,2,0,2,0,1,21,77,48,,,,,,,,,,,,,,,,,,,,,,,1637.178745299927,None,1637.178745299927,None,1636.6783164999215,None,j,0.650200100033544,1637.178745299927,None,,,,,,,a,001,2021_Jun_30_1635,toilet,2021.1.3,99.87755014456572,
0,0,4,-4,1.15,,,,,2,0,2,0,1,22,78,13,,,,,,,,,,,,,,,,,,,,,,,1638.8297752999933,None,1638.8297752999933,None,1638.329430499929,None,j,1.3513782999943942,1638.8297752999933,None,,,,,,,a,001,2021_Jun_30_1635,toilet,2021.1.3,99.87755014456572,
180,180,4,-4,1.0,,,,,2,0,2,0,1,23,79,38,,,,,,,,,,,,,,,,,,,,,,,1641.1913772999542,None,1641.1913772999542,None,1640.6910312999971,None,f,0.685683999909088,1641.1913772999542,None,,,,,,,a,001,2021_Jun_30_1635,toilet,2021.1.3,99.87755014456572,
0,0,4,-4,1.03,,,,,2,0,2,0,1,24,80,11,,,,,,,,,,,,,,,,,,,,,,,1642.8926118999952,None,1642.8926118999952,None,1642.3921927999472,None,j,0.5523310001008213,1642.8926118999952,None,,,,,,,a,001,2021_Jun_30_1635,toilet,2021.1.3,99.87755014456572,
180,180,4,-4,0.97,,,,,2,0,2,0,1,25,81,37,,,,,,,,,,,,,,,,,,,,,,,1644.453622299945,None,1644.453622299945,None,1643.9532457999885,None,f,0.47923789999913424,1644.453622299945,None,,,,,,,a,001,2021_Jun_30_1635,toilet,2021.1.3,99.87755014456572,
180,0,4,-4,1.0,,,,,2,0,2,0,1,26,82,52,,,,,,,,,,,,,,,,,,,,,,,1645.9345891999546,None,1645.9345891999546,None,1645.434247499914,None,f,0.6623958999989554,1645.9345891999546,None,,,,,,,a,001,2021_Jun_30_1635,toilet,2021.1.3,99.87755014456572,
0,0,-4,4,1.06,,,,,2,0,2,0,1,27,83,5,,,,,,,,,,,,,,,,,,,,,,,1647.6057176999748,None,1647.6057176999748,None,1647.1053788999561,None,j,0.431311700027436,1647.6057176999748,None,,,,,,,a,001,2021_Jun_30_1635,toilet,2021.1.3,99.87755014456572,
0,180,-4,4,0.94,,,,,2,0,2,0,1,28,84,15,,,,,,,,,,,,,,,,,,,,,,,1649.0466950999107,None,1649.0466950999107,None,1648.5463563998928,None,f,0.5743579999543726,1649.0466950999107,None,,,,,,,a,001,2021_Jun_30_1635,toilet,2021.1.3,99.87755014456572,
0,180,4,-4,1.0,,,,,2,0,2,0,1,29,85,24,,,,,,,,,,,,,,,,,,,,,,,1650.6378683999646,None,1650.6378683999646,None,1650.1374310998945,None,f,0.5030916000250727,1650.6378683999646,None,,,,,,,a,001,2021_Jun_30_1635,toilet,2021.1.3,99.87755014456572,
0,180,-4,4,1.15,,,,,2,0,2,0,1,30,86,20,,,,,,,,,,,,,,,,,,,,,,,1652.148838199908,None,1652.148838199908,None,1651.648503299919,None,j,0.49605509999673814,1652.148838199908,None,,,,,,,a,001,2021_Jun_30_1635,toilet,2021.1.3,99.87755014456572,
180,180,-4,4,1.15,,,,,2,0,2,0,1,31,87,34,,,,,,,,,,,,,,,,,,,,,,,1653.6498198999325,None,1653.6498198999325,None,1653.1494747999823,None,j,0.49901199992746115,1653.6498198999325,None,,,,,,,a,001,2021_Jun_30_1635,toilet,2021.1.3,99.87755014456572,
0,180,4,-4,1.15,,,,,2,0,2,0,1,32,88,27,,,,,,,,,,,,,,,,,,,,,,,1655.1608371000038,None,1655.1608371000038,None,1654.660547599895,None,f,0.47629629995208234,1655.1608371000038,None,,,,,,,a,001,2021_Jun_30_1635,toilet,2021.1.3,99.87755014456572,
0,0,-4,4,1.0,,,,,2,0,2,0,1,33,89,3,,,,,,,,,,,,,,,,,,,,,,,1656.6518508999143,None,1656.6518508999143,None,1656.1515111000044,None,f,1.113053899956867,1656.6518508999143,None,,,,,,,a,001,2021_Jun_30_1635,toilet,2021.1.3,99.87755014456572,
180,180,4,-4,1.03,,,,,2,0,2,0,1,34,90,39,,,,,,,,,,,,,,,,,,,,,,,1658.773295299965,None,1658.773295299965,None,1658.2729503998999,None,f,0.5436087000416592,1658.773295299965,None,,,,,,,a,001,2021_Jun_30_1635,toilet,2021.1.3,99.87755014456572,
180,0,-4,4,1.03,,,,,2,0,2,0,1,35,91,46,,,,,,,,,,,,,,,,,,,,,,,1660.334342099959,None,1660.334342099959,None,1659.8340117000043,None,j,0.7425145000452176,1660.334342099959,None,,,,,,,a,001,2021_Jun_30_1635,toilet,2021.1.3,99.87755014456572,
180,180,-4,4,0.85,,,,,2,0,2,0,1,36,92,28,,,,,,,,,,,,,,,,,,,,,,,1662.0855301999254,None,1662.0855301999254,None,1661.5851945999311,None,f,0.47935039992444217,1662.0855301999254,None,,,,,,,a,001,2021_Jun_30_1635,toilet,2021.1.3,99.87755014456572,
180,0,-4,4,0.94,,,,,2,0,2,0,1,37,93,43,,,,,,,,,,,,,,,,,,,,,,,1663.5765399999218,None,1663.5765399999218,None,1663.0762009999016,None,f,0.7323246999876574,1663.5765399999218,None,,,,,,,a,001,2021_Jun_30_1635,toilet,2021.1.3,99.87755014456572,
180,180,4,-4,0.85,,,,,2,0,2,0,1,38,94,35,,,,,,,,,,,,,,,,,,,,,,,1665.327821499901,None,1665.327821499901,None,1664.8273897999898,None,j,0.43712890008464456,1665.327821499901,None,,,,,,,a,001,2021_Jun_30_1635,toilet,2021.1.3,99.87755014456572,
0,180,4,-4,1.03,,,,,2,0,2,0,1,39,95,25,,,,,,,,,,,,,,,,,,,,,,,1666.7787433998892,None,1666.7787433998892,None,1666.2784187999787,None,f,0.49014409992378205,1666.7787433998892,None,,,,,,,a,001,2021_Jun_30_1635,toilet,2021.1.3,99.87755014456572,
180,0,4,-4,0.94,,,,,2,0,2,0,1,40,96,50,,,,,,,,,,,,,,,,,,,,,,,1668.2697192999767,None,1668.2697192999767,None,1667.7693646999542,None,f,0.5832685000495985,1668.2697192999767,None,,,,,,,a,001,2021_Jun_30_1635,toilet,2021.1.3,99.87755014456572,
180,0,4,-4,0.97,,,,,2,0,2,0,1,41,97,51,,,,,,,,,,,,,,,,,,,,,,,1669.8708061999641,None,1669.8708061999641,None,1669.3704680999508,None,j,0.5182205000892282,1669.8708061999641,None,,,,,,,a,001,2021_Jun_30_1635,toilet,2021.1.3,99.87755014456572,
0,180,4,-4,1.06,,,,,2,0,2,0,1,42,98,26,,,,,,,,,,,,,,,,,,,,,,,1671.401848499896,None,1671.401848499896,None,1670.901503699948,None,f,0.7310039999429137,1671.401848499896,None,,,,,,,a,001,2021_Jun_30_1635,toilet,2021.1.3,99.87755014456572,
0,0,4,-4,0.94,,,,,2,0,2,0,1,43,99,8,,,,,,,,,,,,,,,,,,,,,,,1673.133113799966,None,1673.133113799966,None,1672.632767300005,None,j,0.487765199970454,1673.133113799966,None,,,,,,,a,001,2021_Jun_30_1635,toilet,2021.1.3,99.87755014456572,
0,180,-4,4,1.06,,,,,2,0,2,0,1,44,100,19,,,,,,,,,,,,,,,,,,,,,,,1674.6240259999176,None,1674.6240259999176,None,1674.12372579996,None,j,0.5329332000110298,1674.6240259999176,None,,,,,,,a,001,2021_Jun_30_1635,toilet,2021.1.3,99.87755014456572,
180,0,-4,4,0.97,,,,,2,0,2,0,1,45,101,44,,,,,,,,,,,,,,,,,,,,,,,1676.1650768999243,None,1676.1650768999243,None,1675.664729299955,None,f,0.8957747999811545,1676.1650768999243,None,,,,,,,a,001,2021_Jun_30_1635,toilet,2021.1.3,99.87755014456572,
0,180,-4,4,1.0,,,,,2,0,2,0,1,46,102,17,,,,,,,,,,,,,,,,,,,,,,,1678.066356599913,None,1678.066356599913,None,1677.566022099927,None,f,0.7385771999834105,1678.066356599913,None,,,,,,,a,001,2021_Jun_30_1635,toilet,2021.1.3,99.87755014456572,
180,0,4,-4,1.03,,,,,2,0,2,0,1,47,103,53,,,,,,,,,,,,,,,,,,,,,,,1679.8175633999053,None,1679.8175633999053,None,1679.3172066999832,None,f,0.5713834000052884,1679.8175633999053,None,,,,,,,a,001,2021_Jun_30_1635,toilet,2021.1.3,99.87755014456572,
180,180,-4,4,1.06,,,,,2,0,2,0,1,48,104,33,,,,,,,,,,,,,,,,,,,,,,,1681.388617199962,None,1681.388617199962,None,1680.8883487998974,None,j,0.536244000075385,1681.388617199962,None,,,,,,,a,001,2021_Jun_30_1635,toilet,2021.1.3,99.87755014456572,
0,0,-4,4,1.03,,,,,2,0,2,0,1,49,105,4,,,,,,,,,,,,,,,,,,,,,,,1682.9296709999908,None,1682.9296709999908,None,1682.4293234999059,None,j,0.7232737999875098,1682.9296709999908,None,,,,,,,a,001,2021_Jun_30_1635,toilet,2021.1.3,99.87755014456572,
180,0,-4,4,1.06,,,,,2,0,2,0,1,50,106,47,,,,,,,,,,,,,,,,,,,,,,,1684.660825299914,None,1684.660825299914,None,1684.1604859998915,None,j,0.6882295999675989,1684.660825299914,None,,,,,,,a,001,2021_Jun_30_1635,toilet,2021.1.3,99.87755014456572,
180,180,4,-4,1.06,,,,,2,0,2,0,1,51,107,40,,,,,,,,,,,,,,,,,,,,,,,1686.3619813999394,None,1686.3619813999394,None,1685.8616442999337,None,f,0.506957900011912,1686.3619813999394,None,,,,,,,a,001,2021_Jun_30_1635,toilet,2021.1.3,99.87755014456572,
0,180,-4,4,0.85,,,,,2,0,2,0,1,52,108,14,,,,,,,,,,,,,,,,,,,,,,,1687.8831008999841,None,1687.8831008999841,None,1687.3826800999232,None,f,0.5540766000049189,1687.8831008999841,None,,,,,,,a,001,2021_Jun_30_1635,toilet,2021.1.3,99.87755014456572,
0,0,-4,4,0.94,,,,,2,0,2,0,1,53,109,1,,,,,,,,,,,,,,,,,,,,,,,1689.4440690999618,None,1689.4440690999618,None,1688.9437292999355,None,f,0.7207698000129312,1689.4440690999618,None,,,,,,,a,001,2021_Jun_30_1635,toilet,2021.1.3,99.87755014456572,
180,0,-4,4,1.0,,,,,2,0,2,0,1,54,110,45,,,,,,,,,,,,,,,,,,,,,,,1691.1652412998956,None,1691.1652412998956,None,1690.664893399924,None,j,0.69575990003068,1691.1652412998956,None,,,,,,,a,001,2021_Jun_30_1635,toilet,2021.1.3,99.87755014456572,
180,180,-4,4,0.97,,,,,2,0,2,0,1,55,111,30,,,,,,,,,,,,,,,,,,,,,,,1692.886404799996,None,1692.886404799996,None,1692.3860649999697,None,f,0.5425912999780849,1692.886404799996,None,,,,,,,a,001,2021_Jun_30_1635,toilet,2021.1.3,99.87755014456572,
,,,,,,,,,2,0,2,0,,,,,,,,,,,,,,,,,,,,,,,,,,,,,,,,,,,,,1693.45684359991,None,space,4.196146400063299,1693.45684359991,None,a,001,2021_Jun_30_1635,toilet,2021.1.3,99.87755014456572,
180,180,-4,4,0.85,,,,,3,0,3,0,0,0,0,28,,,,,,,,,,,,,,,,,1697.6696633999236,None,space,3.071203999919817,1697.6696633999236,None,1701.7525032999692,None,1701.7525032999692,None,1701.2520635999972,None,f,0.46052329998929054,1701.7525032999692,None,,,,,,,a,001,2021_Jun_30_1635,toilet,2021.1.3,99.87755014456572,
180,0,-4,4,0.85,,,,,3,0,3,0,0,1,1,42,,,,,,,,,,,,,,,,,,,,,,,1703.2134867999703,None,1703.2134867999703,None,1702.7231049999828,None,f,0.40735919994767755,1703.2134867999703,None,,,,,,,a,001,2021_Jun_30_1635,toilet,2021.1.3,99.87755014456572,
0,0,4,-4,1.0,,,,,3,0,3,0,0,2,2,10,,,,,,,,,,,,,,,,,,,,,,,1704.6243556999834,None,1704.6243556999834,None,1704.1240147999488,None,j,0.5484703000402078,1704.6243556999834,None,,,,,,,a,001,2021_Jun_30_1635,toilet,2021.1.3,99.87755014456572,
0,180,4,-4,1.06,,,,,3,0,3,0,0,3,3,26,,,,,,,,,,,,,,,,,,,,,,,1706.1754055999918,None,1706.1754055999918,None,1705.6750809999648,None,f,0.42153340007644147,1706.1754055999918,None,,,,,,,a,001,2021_Jun_30_1635,toilet,2021.1.3,99.87755014456572,
180,0,4,-4,0.97,,,,,3,0,3,0,0,4,4,51,,,,,,,,,,,,,,,,,,,,,,,1707.6063718999503,None,1707.6063718999503,None,1707.1060334999347,None,j,0.606621399987489,1707.6063718999503,None,,,,,,,a,001,2021_Jun_30_1635,toilet,2021.1.3,99.87755014456572,
180,180,4,-4,0.97,,,,,3,0,3,0,0,5,5,37,,,,,,,,,,,,,,,,,,,,,,,1709.217547499924,None,1709.217547499924,None,1708.727136499947,None,j,1.3634513999568298,1709.217547499924,None,,,,,,,a,001,2021_Jun_30_1635,toilet,2021.1.3,99.87755014456572,
0,180,4,-4,1.0,,,,,3,0,3,0,0,6,6,24,,,,,,,,,,,,,,,,,,,,,,,1711.5890808999538,None,1711.5890808999538,None,1711.0987484999932,None,j,2.3197776000015438,1711.5890808999538,None,,,,,,,a,001,2021_Jun_30_1635,toilet,2021.1.3,99.87755014456572,
180,180,-4,4,1.06,,,,,3,0,3,0,0,7,7,33,,,,,,,,,,,,,,,,,,,,,,,1714.9113298999146,None,1714.9113298999146,None,1714.4109870999819,None,j,2.661544800037518,1714.9113298999146,None,,,,,,,a,001,2021_Jun_30_1635,toilet,2021.1.3,99.87755014456572,
0,180,4,-4,0.85,,,,,3,0,3,0,0,8,8,21,,,,,,,,,,,,,,,,,,,,,,,1718.5838119999971,None,1718.5838119999971,None,1718.0834764000028,None,j,0.6049881000071764,1718.5838119999971,None,,,,,,,a,001,2021_Jun_30_1635,toilet,2021.1.3,99.87755014456572,
0,0,4,-4,0.85,,,,,3,0,3,0,0,9,9,7,,,,,,,,,,,,,,,,,,,,,,,1720.1949098999612,None,1720.1949098999612,None,1719.6945661999052,None,j,0.5939739000750706,1720.1949098999612,None,,,,,,,a,001,2021_Jun_30_1635,toilet,2021.1.3,99.87755014456572,
0,0,4,-4,1.06,,,,,3,0,3,0,0,10,10,12,,,,,,,,,,,,,,,,,,,,,,,1721.7959878999973,None,1721.7959878999973,None,1721.2956515999977,None,f,0.7689073999645188,1721.7959878999973,None,,,,,,,a,001,2021_Jun_30_1635,toilet,2021.1.3,99.87755014456572,
180,0,4,-4,0.85,,,,,3,0,3,0,0,11,11,49,,,,,,,,,,,,,,,,,,,,,,,1723.577193099889,None,1723.577193099889,None,1723.0768624999328,None,j,0.4757800999796018,1723.577193099889,None,,,,,,,a,001,2021_Jun_30_1635,toilet,2021.1.3,99.87755014456572,
0,0,4,-4,1.15,,,,,3,0,3,0,0,12,12,13,,,,,,,,,,,,,,,,,,,,,,,1725.0682812999003,None,1725.0682812999003,None,1724.5679595998954,None,f,0.6164977999869734,1725.0682812999003,None,,,,,,,a,001,2021_Jun_30_1635,toilet,2021.1.3,99.87755014456572,
0,0,4,-4,1.03,,,,,3,0,3,0,0,13,13,11,,,,,,,,,,,,,,,,,,,,,,,1726.6893053998938,None,1726.6893053998938,None,1726.1890003998997,None,j,2.4835880000609905,1726.6893053998938,None,,,,,,,a,001,2021_Jun_30_1635,toilet,2021.1.3,99.87755014456572,
0,180,4,-4,1.03,,,,,3,0,3,0,0,14,14,25,,,,,,,,,,,,,,,,,,,,,,,1730.2016832999652,None,1730.2016832999652,None,1729.701343099936,None,f,2.107267400017008,1730.2016832999652,None,,,,,,,a,001,2021_Jun_30_1635,toilet,2021.1.3,99.87755014456572,
0,180,-4,4,1.03,,,,,3,0,3,0,0,15,15,18,,,,,,,,,,,,,,,,,,,,,,,1733.313790599932,None,1733.313790599932,None,1732.8134897999698,None,j,0.5470119999954477,1733.313790599932,None,,,,,,,a,001,2021_Jun_30_1635,toilet,2021.1.3,99.87755014456572,
0,180,4,-4,0.97,,,,,3,0,3,0,0,16,16,23,,,,,,,,,,,,,,,,,,,,,,,1734.8648466999875,None,1734.8648466999875,None,1734.3645029999316,None,j,0.48399980005342513,1734.8648466999875,None,,,,,,,a,001,2021_Jun_30_1635,toilet,2021.1.3,99.87755014456572,
180,0,-4,4,1.06,,,,,3,0,3,0,0,17,17,47,,,,,,,,,,,,,,,,,,,,,,,1736.3658669999568,None,1736.3658669999568,None,1735.865524899913,None,j,0.6150834000436589,1736.3658669999568,None,,,,,,,a,001,2021_Jun_30_1635,toilet,2021.1.3,99.87755014456572,
180,180,4,-4,1.15,,,,,3,0,3,0,0,18,18,41,,,,,,,,,,,,,,,,,,,,,,,1738.0069701999892,None,1738.0069701999892,None,1737.5066323999781,None,f,0.46190880006179214,1738.0069701999892,None,,,,,,,a,001,2021_Jun_30_1635,toilet,2021.1.3,99.87755014456572,
180,180,-4,4,0.94,,,,,3,0,3,0,0,19,19,29,,,,,,,,,,,,,,,,,,,,,,,1739.4780537999468,None,1739.4780537999468,None,1738.9777228999883,None,f,0.47880939999595284,1739.4780537999468,None,,,,,,,a,001,2021_Jun_30_1635,toilet,2021.1.3,99.87755014456572,
0,180,-4,4,1.0,,,,,3,0,3,0,0,20,20,17,,,,,,,,,,,,,,,,,,,,,,,1740.9689872999443,None,1740.9689872999443,None,1740.4686460999073,None,f,0.4121890999376774,1740.9689872999443,None,,,,,,,a,001,2021_Jun_30_1635,toilet,2021.1.3,99.87755014456572,
180,180,-4,4,1.03,,,,,3,0,3,0,0,21,21,32,,,,,,,,,,,,,,,,,,,,,,,1742.389943899936,None,1742.389943899936,None,1741.88960149989,None,f,0.9749904999043792,1742.389943899936,None,,,,,,,a,001,2021_Jun_30_1635,toilet,2021.1.3,99.87755014456572,
180,0,-4,4,1.0,,,,,3,0,3,0,0,22,22,45,,,,,,,,,,,,,,,,,,,,,,,1744.3912906999467,None,1744.3912906999467,None,1743.8909632998984,None,j,0.5736470998963341,1744.3912906999467,None,,,,,,,a,001,2021_Jun_30_1635,toilet,2021.1.3,99.87755014456572,
180,0,4,-4,1.03,,,,,3,0,3,0,0,23,23,53,,,,,,,,,,,,,,,,,,,,,,,1745.9923831999768,None,1745.9923831999768,None,1745.492138099973,None,f,0.7484922000439838,1745.9923831999768,None,,,,,,,a,001,2021_Jun_30_1635,toilet,2021.1.3,99.87755014456572,
0,0,-4,4,0.94,,,,,3,0,3,0,0,24,24,1,,,,,,,,,,,,,,,,,,,,,,,1747.7535840999335,None,1747.7535840999335,None,1747.2533151999814,None,f,0.6671788999810815,1747.7535840999335,None,,,,,,,a,001,2021_Jun_30_1635,toilet,2021.1.3,99.87755014456572,
0,180,-4,4,0.97,,,,,3,0,3,0,0,25,25,16,,,,,,,,,,,,,,,,,,,,,,,1749.4247130999574,None,1749.4247130999574,None,1748.9243684998946,None,f,0.5321748000569642,1749.4247130999574,None,,,,,,,a,001,2021_Jun_30_1635,toilet,2021.1.3,99.87755014456572,
0,180,-4,4,0.94,,,,,3,0,3,0,0,26,26,15,,,,,,,,,,,,,,,,,,,,,,,1750.9657542998902,None,1750.9657542998902,None,1750.4654148999834,None,f,0.5432121000485495,1750.9657542998902,None,,,,,,,a,001,2021_Jun_30_1635,toilet,2021.1.3,99.87755014456572,
0,0,4,-4,0.97,,,,,3,0,3,0,0,27,27,9,,,,,,,,,,,,,,,,,,,,,,,1752.5168057999108,None,1752.5168057999108,None,1752.0164656999987,None,j,0.7361353000160307,1752.5168057999108,None,,,,,,,a,001,2021_Jun_30_1635,toilet,2021.1.3,99.87755014456572,
180,180,4,-4,1.0,,,,,3,0,3,0,0,28,28,38,,,,,,,,,,,,,,,,,,,,,,,1754.2780952999601,None,1754.2780952999601,None,1753.777661699918,None,f,0.558643399970606,1754.2780952999601,None,,,,,,,a,001,2021_Jun_30_1635,toilet,2021.1.3,99.87755014456572,
180,180,4,-4,0.94,,,,,3,0,3,0,0,29,29,36,,,,,,,,,,,,,,,,,,,,,,,1755.849039599998,None,1755.849039599998,None,1755.3487246999284,None,j,0.47573469998314977,1755.849039599998,None,,,,,,,a,001,2021_Jun_30_1635,toilet,2021.1.3,99.87755014456572,
0,0,-4,4,1.06,,,,,3,0,3,0,0,30,30,5,,,,,,,,,,,,,,,,,,,,,,,1757.3300661999965,None,1757.3300661999965,None,1756.8297254999634,None,j,0.546728300047107,1757.3300661999965,None,,,,,,,a,001,2021_Jun_30_1635,toilet,2021.1.3,99.87755014456572,
0,180,-4,4,0.85,,,,,3,0,3,0,0,31,31,14,,,,,,,,,,,,,,,,,,,,,,,1758.8811149999965,None,1758.8811149999965,None,1758.3807788999984,None,f,0.5637368999887258,1758.8811149999965,None,,,,,,,a,001,2021_Jun_30_1635,toilet,2021.1.3,99.87755014456572,
0,180,-4,4,1.06,,,,,3,0,3,0,0,32,32,19,,,,,,,,,,,,,,,,,,,,,,,1760.452183599933,None,1760.452183599933,None,1759.951845399919,None,j,0.5285729999886826,1760.452183599933,None,,,,,,,a,001,2021_Jun_30_1635,toilet,2021.1.3,99.87755014456572,
180,0,4,-4,1.0,,,,,3,0,3,0,0,33,33,52,,,,,,,,,,,,,,,,,,,,,,,1761.9832580999937,None,1761.9832580999937,None,1761.482969799894,None,f,0.8374576999340206,1761.9832580999937,None,,,,,,,a,001,2021_Jun_30_1635,toilet,2021.1.3,99.87755014456572,
180,180,-4,4,1.15,,,,,3,0,3,0,0,34,34,34,,,,,,,,,,,,,,,,,,,,,,,1763.8244669999694,None,1763.8244669999694,None,1763.3241256999318,None,j,0.43630180007312447,1763.8244669999694,None,,,,,,,a,001,2021_Jun_30_1635,toilet,2021.1.3,99.87755014456572,
0,0,-4,4,0.97,,,,,3,0,3,0,0,35,35,2,,,,,,,,,,,,,,,,,,,,,,,1765.2654417000012,None,1765.2654417000012,None,1764.765101499972,None,j,0.4514570999890566,1765.2654417000012,None,,,,,,,a,001,2021_Jun_30_1635,toilet,2021.1.3,99.87755014456572,
180,180,4,-4,0.85,,,,,3,0,3,0,0,36,36,35,,,,,,,,,,,,,,,,,,,,,,,1766.7264332999475,None,1766.7264332999475,None,1766.2260954999365,None,j,0.5104266999987885,1766.7264332999475,None,,,,,,,a,001,2021_Jun_30_1635,toilet,2021.1.3,99.87755014456572,
180,180,4,-4,1.06,,,,,3,0,3,0,0,37,37,40,,,,,,,,,,,,,,,,,,,,,,,1768.2474653999088,None,1768.2474653999088,None,1767.7472256999463,None,f,0.4934726000064984,1768.2474653999088,None,,,,,,,a,001,2021_Jun_30_1635,toilet,2021.1.3,99.87755014456572,
180,0,4,-4,0.94,,,,,3,0,3,0,0,38,38,50,,,,,,,,,,,,,,,,,,,,,,,1769.758526599966,None,1769.758526599966,None,1769.2582327999407,None,j,0.534223800059408,1769.758526599966,None,,,,,,,a,001,2021_Jun_30_1635,toilet,2021.1.3,99.87755014456572,
180,0,4,-4,1.15,,,,,3,0,3,0,0,39,39,55,,,,,,,,,,,,,,,,,,,,,,,1771.2995330999838,None,1771.2995330999838,None,1770.79919099994,None,f,0.4653573000105098,1771.2995330999838,None,,,,,,,a,001,2021_Jun_30_1635,toilet,2021.1.3,99.87755014456572,
180,180,-4,4,1.0,,,,,3,0,3,0,0,40,40,31,,,,,,,,,,,,,,,,,,,,,,,1772.7705295999767,None,1772.7705295999767,None,1772.270188699942,None,j,0.4823918000329286,1772.7705295999767,None,,,,,,,a,001,2021_Jun_30_1635,toilet,2021.1.3,99.87755014456572,
180,0,4,-4,1.06,,,,,3,0,3,0,0,41,41,54,,,,,,,,,,,,,,,,,,,,,,,1774.2815526999766,None,1774.2815526999766,None,1773.7812177999876,None,f,0.555385300074704,1774.2815526999766,None,,,,,,,a,001,2021_Jun_30_1635,toilet,2021.1.3,99.87755014456572,
180,180,-4,4,0.97,,,,,3,0,3,0,0,42,42,30,,,,,,,,,,,,,,,,,,,,,,,1775.852620499907,None,1775.852620499907,None,1775.3523646999383,None,f,0.6961207999847829,1775.852620499907,None,,,,,,,a,001,2021_Jun_30_1635,toilet,2021.1.3,99.87755014456572,
0,180,4,-4,1.15,,,,,3,0,3,0,0,43,43,27,,,,,,,,,,,,,,,,,,,,,,,1777.5537662999704,None,1777.5537662999704,None,1777.053440699936,None,f,0.6749800000106916,1777.5537662999704,None,,,,,,,a,001,2021_Jun_30_1635,toilet,2021.1.3,99.87755014456572,
0,0,-4,4,1.15,,,,,3,0,3,0,0,44,44,6,,,,,,,,,,,,,,,,,,,,,,,1779.2349064999726,None,1779.2349064999726,None,1778.7345733999973,None,j,0.46582210005726665,1779.2349064999726,None,,,,,,,a,001,2021_Jun_30_1635,toilet,2021.1.3,99.87755014456572,
180,0,-4,4,0.94,,,,,3,0,3,0,0,45,45,43,,,,,,,,,,,,,,,,,,,,,,,1780.705905699986,None,1780.705905699986,None,1780.2055656999582,None,f,0.5629198000533506,1780.705905699986,None,,,,,,,a,001,2021_Jun_30_1635,toilet,2021.1.3,99.87755014456572,
0,0,4,-4,0.94,,,,,3,0,3,0,0,46,46,8,,,,,,,,,,,,,,,,,,,,,,,1782.2870052999351,None,1782.2870052999351,None,1781.7866343999049,None,j,0.45376850001048297,1782.2870052999351,None,,,,,,,a,001,2021_Jun_30_1635,toilet,2021.1.3,99.87755014456572,
0,0,-4,4,1.03,,,,,3,0,3,0,0,47,47,4,,,,,,,,,,,,,,,,,,,,,,,1783.7480603998993,None,1783.7480603998993,None,1783.2477056999924,None,j,0.5128601000178605,1783.7480603998993,None,,,,,,,a,001,2021_Jun_30_1635,toilet,2021.1.3,99.87755014456572,
180,0,-4,4,1.03,,,,,3,0,3,0,0,48,48,46,,,,,,,,,,,,,,,,,,,,,,,1785.2790006999858,None,1785.2790006999858,None,1784.7786650999915,None,j,0.5657199000706896,1785.2790006999858,None,,,,,,,a,001,2021_Jun_30_1635,toilet,2021.1.3,99.87755014456572,
0,0,-4,4,0.85,,,,,3,0,3,0,0,49,49,0,,,,,,,,,,,,,,,,,,,,,,,1786.8500726999482,None,1786.8500726999482,None,1786.3497296998976,None,f,0.4666867000050843,1786.8500726999482,None,,,,,,,a,001,2021_Jun_30_1635,toilet,2021.1.3,99.87755014456572,
180,0,-4,4,0.97,,,,,3,0,3,0,0,50,50,44,,,,,,,,,,,,,,,,,,,,,,,1788.3210604999913,None,1788.3210604999913,None,1787.8207215999719,None,j,0.4678346000146121,1788.3210604999913,None,,,,,,,a,001,2021_Jun_30_1635,toilet,2021.1.3,99.87755014456572,
180,180,4,-4,1.03,,,,,3,0,3,0,0,51,51,39,,,,,,,,,,,,,,,,,,,,,,,1789.8020700999768,None,1789.8020700999768,None,1789.3017276999308,None,f,0.4428289000643417,1789.8020700999768,None,,,,,,,a,001,2021_Jun_30_1635,toilet,2021.1.3,99.87755014456572,
180,0,-4,4,1.15,,,,,3,0,3,0,0,52,52,48,,,,,,,,,,,,,,,,,,,,,,,1791.2531501998892,None,1791.2531501998892,None,1790.7527476999676,None,j,0.4155609000008553,1791.2531501998892,None,,,,,,,a,001,2021_Jun_30_1635,toilet,2021.1.3,99.87755014456572,
0,180,4,-4,0.94,,,,,3,0,3,0,0,53,53,22,,,,,,,,,,,,,,,,,,,,,,,1792.6740195999155,None,1792.6740195999155,None,1792.1736763999797,None,j,0.6427750999573618,1792.6740195999155,None,,,,,,,a,001,2021_Jun_30_1635,toilet,2021.1.3,99.87755014456572,
0,180,-4,4,1.15,,,,,3,0,3,0,0,54,54,20,,,,,,,,,,,,,,,,,,,,,,,1794.3251291998895,None,1794.3251291998895,None,1793.8247892999789,None,j,0.5437174000544474,1794.3251291998895,None,,,,,,,a,001,2021_Jun_30_1635,toilet,2021.1.3,99.87755014456572,
0,0,-4,4,1.0,,,,,3,0,3,0,0,55,55,3,,,,,,,,,,,,,,,,,,,,,,,1795.8862012999598,None,1795.8862012999598,None,1795.3858470999403,None,j,2.1186671000905335,1795.8862012999598,None,,,,,,,a,001,2021_Jun_30_1635,toilet,2021.1.3,99.87755014456572,
180,0,4,-4,1.06,,,,,3,0,3,0,1,0,56,54,,,,,,,,,,,,,,,,,,,,,,,1799.0183292999864,None,1799.0183292999864,None,1798.5179676999105,None,f,0.49040380003862083,1799.0183292999864,None,,,,,,,a,001,2021_Jun_30_1635,toilet,2021.1.3,99.87755014456572,
180,180,-4,4,1.03,,,,,3,0,3,0,1,1,57,32,,,,,,,,,,,,,,,,,,,,,,,1800.5093230999773,None,1800.5093230999773,None,1800.0089793999214,None,j,0.48743620002642274,1800.5093230999773,None,,,,,,,a,001,2021_Jun_30_1635,toilet,2021.1.3,99.87755014456572,
0,180,-4,4,1.15,,,,,3,0,3,0,1,2,58,20,,,,,,,,,,,,,,,,,,,,,,,1802.000333999982,None,1802.000333999982,None,1801.4999824999832,None,j,0.4206679000053555,1802.000333999982,None,,,,,,,a,001,2021_Jun_30_1635,toilet,2021.1.3,99.87755014456572,
