ori_st,ori_pr,xpos_st,xpos_pr,size,trials_3.thisRepN,trials_3.thisTrialN,trials_3.thisN,trials_3.thisIndex,trials_2.thisRepN,trials_2.thisTrialN,trials_2.thisN,trials_2.thisIndex,trials.thisRepN,trials.thisTrialN,trials.thisN,trials.thisIndex,wel_pra.started,wel_pra.stopped,resp_wel.keys,resp_wel.rt,resp_wel.started,resp_wel.stopped,standard_pra.started,standard_pra.stopped,prove_pra.started,prove_pra.stopped,fixation.started,fixation.stopped,resp_pra.keys,resp_pra.rt,resp_pra.started,resp_pra.stopped,instr.started,instr.stopped,key_resp_2.keys,key_resp_2.rt,key_resp_2.started,key_resp_2.stopped,standard.started,standard.stopped,probe.started,probe.stopped,text.started,text.stopped,resp.keys,resp.rt,resp.started,resp.stopped,text_2.started,text_2.stopped,key_resp.keys,key_resp.rt,key_resp.started,key_resp.stopped,text_3.started,text_3.stopped,key_resp_3.keys,key_resp_3.rt,key_resp_3.started,key_resp_3.stopped,participant,session,date,expName,psychopyVersion,frameRate,
,,,,,,,,,,,,,,,,,12.229053300005035,None,space,246.53166940000665,12.229053300005035,None,,,,,,,,,,,,,,,,,,,,,,,,,,,,,,,,,,,,,,,m,001,2021_Jul_07_1709,toilet,2021.1.3,99.80796946564436,
180,0,-4,4,0.85,0,0,0,12,,,,,,,,,,,,,,,259.80079439999827,None,259.80079439999827,None,259.3004496000067,None,f,1.8396274999977322,259.80079439999827,None,,,,,,,,,,,,,,,,,,,,,,,,,,,,,m,001,2021_Jul_07_1709,toilet,2021.1.3,99.80796946564436,
180,0,-4,4,1.15,0,1,1,14,,,,,,,,,,,,,,,262.65276290000475,None,262.65276290000475,None,262.15242870000657,None,j,1.083733099992969,262.65276290000475,None,,,,,,,,,,,,,,,,,,,,,,,,,,,,,m,001,2021_Jul_07_1709,toilet,2021.1.3,99.80796946564436,
180,180,-4,4,1.15,0,2,2,10,,,,,,,,,,,,,,,264.74414570000954,None,264.74414570000954,None,264.24380660000315,None,j,0.8802085000061197,264.74414570000954,None,,,,,,,,,,,,,,,,,,,,,,,,,,,,,m,001,2021_Jul_07_1709,toilet,2021.1.3,99.80796946564436,
0,180,-4,4,0.85,0,3,3,4,,,,,,,,,,,,,,,266.62542350000876,None,266.62542350000876,None,266.12509420000424,None,f,1.6549469000019599,266.62542350000876,None,,,,,,,,,,,,,,,,,,,,,,,,,,,,,m,001,2021_Jul_07_1709,toilet,2021.1.3,99.80796946564436,
180,0,-4,4,0.85,0,4,4,13,,,,,,,,,,,,,,,269.28731980000157,None,269.28731980000157,None,268.7869756,None,f,0.4651072999986354,269.28731980000157,None,,,,,,,,,,,,,,,,,,,,,,,,,,,,,m,001,2021_Jul_07_1709,toilet,2021.1.3,99.80796946564436,
0,0,-4,4,0.85,0,5,5,0,,,,,,,,,,,,,,,270.75822869999683,None,270.75822869999683,None,270.2578887999989,None,f,0.5141370000055758,270.75822869999683,None,,,,,,,,,,,,,,,,,,,,,,,,,,,,,m,001,2021_Jul_07_1709,toilet,2021.1.3,99.80796946564436,
0,180,-4,4,1.15,0,6,6,6,,,,,,,,,,,,,,,272.2792563999974,None,272.2792563999974,None,271.7789196000085,None,j,0.7531635000050301,272.2792563999974,None,,,,,,,,,,,,,,,,,,,,,,,,,,,,,m,001,2021_Jul_07_1709,toilet,2021.1.3,99.80796946564436,
0,0,4,-4,1.15,0,7,7,3,,,,,,,,,,,,,,,274.05045779999637,None,274.05045779999637,None,273.55012450000504,None,f,1.1579682000010507,274.05045779999637,None,,,,,,,,,,,,,,,,,,,,,,,,,,,,,m,001,2021_Jul_07_1709,toilet,2021.1.3,99.80796946564436,
0,180,4,-4,0.85,0,8,8,5,,,,,,,,,,,,,,,276.212010999996,None,276.212010999996,None,275.71166939999966,None,j,0.8204038000112632,276.212010999996,None,,,,,,,,,,,,,,,,,,,,,,,,,,,,,m,001,2021_Jul_07_1709,toilet,2021.1.3,99.80796946564436,
0,180,4,-4,1.15,0,9,9,7,,,,,,,,,,,,,,,278.04317170000286,None,278.04317170000286,None,277.5428275000013,None,f,0.637182299993583,278.04317170000286,None,,,,,,,,,,,,,,,,,,,,,,,,,,,,,m,001,2021_Jul_07_1709,toilet,2021.1.3,99.80796946564436,
180,0,-4,4,1.15,0,10,10,15,,,,,,,,,,,,,,,279.6842814999982,None,279.6842814999982,None,279.18395010000677,None,j,0.5643143000052078,279.6842814999982,None,,,,,,,,,,,,,,,,,,,,,,,,,,,,,m,001,2021_Jul_07_1709,toilet,2021.1.3,99.80796946564436,
0,0,-4,4,1.15,0,11,11,2,,,,,,,,,,,,,,,281.27536359999795,None,281.27536359999795,None,280.77502270000696,None,j,0.5732016999972984,281.27536359999795,None,,,,,,,,,,,,,,,,,,,,,,,,,,,,,m,001,2021_Jul_07_1709,toilet,2021.1.3,99.80796946564436,
0,0,4,-4,0.85,0,12,12,1,,,,,,,,,,,,,,,282.8664368000027,None,282.8664368000027,None,282.36609700000554,None,j,0.4541402999893762,282.8664368000027,None,,,,,,,,,,,,,,,,,,,,,,,,,,,,,m,001,2021_Jul_07_1709,toilet,2021.1.3,99.80796946564436,
180,180,-4,4,0.85,0,13,13,9,,,,,,,,,,,,,,,284.33751690000645,None,284.33751690000645,None,283.8370991999982,None,f,0.5029847999976482,284.33751690000645,None,,,,,,,,,,,,,,,,,,,,,,,,,,,,,m,001,2021_Jul_07_1709,toilet,2021.1.3,99.80796946564436,
180,180,-4,4,1.15,0,14,14,11,,,,,,,,,,,,,,,285.84845970000606,None,285.84845970000606,None,285.35812879999867,None,j,0.5598884000064572,285.84845970000606,None,,,,,,,,,,,,,,,,,,,,,,,,,,,,,m,001,2021_Jul_07_1709,toilet,2021.1.3,99.80796946564436,
180,180,-4,4,0.85,0,15,15,8,,,,,,,,,,,,,,,287.409519599998,None,287.409519599998,None,286.9091861000052,None,f,0.518878400005633,287.409519599998,None,,,,,,,,,,,,,,,,,,,,,,,,,,,,,m,001,2021_Jul_07_1709,toilet,2021.1.3,99.80796946564436,
0,0,4,-4,1.03,,,,,0,0,0,0,0,0,0,11,,,,,,,,,,,,,,,,,287.9398857000051,None,space,78.6764445000008,287.9398857000051,None,367.6339248000004,None,367.6339248000004,None,367.1335822999972,None,f,0.9824771999992663,367.6339248000004,None,,,,,,,,,,,,,m,001,2021_Jul_07_1709,toilet,2021.1.3,99.80796946564436,
0,180,-4,4,1.0,,,,,0,0,0,0,0,1,1,17,,,,,,,,,,,,,,,,,,,,,,,369.62527790000604,None,369.62527790000604,None,369.12493160000304,None,j,1.9990999000001466,369.62527790000604,None,,,,,,,,,,,,,m,001,2021_Jul_07_1709,toilet,2021.1.3,99.80796946564436,
180,0,-4,4,0.94,,,,,0,0,0,0,0,2,2,43,,,,,,,,,,,,,,,,,,,,,,,372.62738140000147,None,372.62738140000147,None,372.1269731000066,None,f,0.708905199993751,372.62738140000147,None,,,,,,,,,,,,,m,001,2021_Jul_07_1709,toilet,2021.1.3,99.80796946564436,
180,0,4,-4,0.94,,,,,0,0,0,0,0,3,3,50,,,,,,,,,,,,,,,,,,,,,,,374.33849320000445,None,374.33849320000445,None,373.8381309999968,None,j,0.485810300000594,374.33849320000445,None,,,,,,,,,,,,,m,001,2021_Jul_07_1709,toilet,2021.1.3,99.80796946564436,
180,0,4,-4,1.0,,,,,0,0,0,0,0,4,4,52,,,,,,,,,,,,,,,,,,,,,,,375.8294986999972,None,375.8294986999972,None,375.32914050000545,None,j,1.6508824000047753,375.8294986999972,None,,,,,,,,,,,,,m,001,2021_Jul_07_1709,toilet,2021.1.3,99.80796946564436,
180,180,-4,4,1.15,,,,,0,0,0,0,0,5,5,34,,,,,,,,,,,,,,,,,,,,,,,378.4912871999986,None,378.4912871999986,None,377.9909469999984,None,j,0.6210851000068942,378.4912871999986,None,,,,,,,,,,,,,m,001,2021_Jul_07_1709,toilet,2021.1.3,99.80796946564436,
180,180,4,-4,1.0,,,,,0,0,0,0,0,6,6,38,,,,,,,,,,,,,,,,,,,,,,,380.12248390000605,None,380.12248390000605,None,379.62205130000075,None,j,4.845985899999505,380.12248390000605,None,,,,,,,,,,,,,m,001,2021_Jul_07_1709,toilet,2021.1.3,99.80796946564436,
180,180,-4,4,0.85,,,,,0,0,0,0,0,7,7,28,,,,,,,,,,,,,,,,,,,,,,,385.9963695000042,None,385.9963695000042,None,385.496037799996,None,f,2.699945899992599,385.9963695000042,None,,,,,,,,,,,,,m,001,2021_Jul_07_1709,toilet,2021.1.3,99.80796946564436,
0,0,-4,4,0.85,,,,,0,0,0,0,0,8,8,0,,,,,,,,,,,,,,,,,,,,,,,389.6988807000016,None,389.6988807000016,None,389.1985463000019,None,f,0.5814990999933798,389.6988807000016,None,,,,,,,,,,,,,m,001,2021_Jul_07_1709,toilet,2021.1.3,99.80796946564436,
180,180,4,-4,0.85,,,,,0,0,0,0,0,9,9,35,,,,,,,,,,,,,,,,,,,,,,,391.2799531000055,None,391.2799531000055,None,390.7796157999983,None,j,1.1923905000003288,391.2799531000055,None,,,,,,,,,,,,,m,001,2021_Jul_07_1709,toilet,2021.1.3,99.80796946564436,
180,0,4,-4,1.03,,,,,0,0,0,0,0,10,10,53,,,,,,,,,,,,,,,,,,,,,,,393.4814534000034,None,393.4814534000034,None,392.98111180000706,None,f,1.1510055999970064,393.4814534000034,None,,,,,,,,,,,,,m,001,2021_Jul_07_1709,toilet,2021.1.3,99.80796946564436,
0,0,-4,4,1.0,,,,,0,0,0,0,0,11,11,3,,,,,,,,,,,,,,,,,,,,,,,395.6329090000072,None,395.6329090000072,None,395.1326030000055,None,j,1.4795004000043264,395.6329090000072,None,,,,,,,,,,,,,m,001,2021_Jul_07_1709,toilet,2021.1.3,99.80796946564436,
180,180,4,-4,0.97,,,,,0,0,0,0,0,12,12,37,,,,,,,,,,,,,,,,,,,,,,,398.11458409999614,None,398.11458409999614,None,397.6142439999967,None,j,1.3658556000009412,398.11458409999614,None,,,,,,,,,,,,,m,001,2021_Jul_07_1709,toilet,2021.1.3,99.80796946564436,
180,180,4,-4,1.03,,,,,0,0,0,0,0,13,13,39,,,,,,,,,,,,,,,,,,,,,,,400.5062054000009,None,400.5062054000009,None,400.0058654000022,None,f,0.7501500999933342,400.5062054000009,None,,,,,,,,,,,,,m,001,2021_Jul_07_1709,toilet,2021.1.3,99.80796946564436,
180,0,4,-4,1.15,,,,,0,0,0,0,0,14,14,55,,,,,,,,,,,,,,,,,,,,,,,402.2574667000008,None,402.2574667000008,None,401.75714460000745,None,f,0.6949561000074027,402.2574667000008,None,,,,,,,,,,,,,m,001,2021_Jul_07_1709,toilet,2021.1.3,99.80796946564436,
180,180,-4,4,1.0,,,,,0,0,0,0,0,15,15,31,,,,,,,,,,,,,,,,,,,,,,,403.9585447999998,None,403.9585447999998,None,403.4582064999995,None,j,1.3781111999996938,403.9585447999998,None,,,,,,,,,,,,,m,001,2021_Jul_07_1709,toilet,2021.1.3,99.80796946564436,
180,180,4,-4,0.94,,,,,0,0,0,0,0,16,16,36,,,,,,,,,,,,,,,,,,,,,,,406.3501868000021,None,406.3501868000021,None,405.84984070000064,None,j,0.794254299995373,406.3501868000021,None,,,,,,,,,,,,,m,001,2021_Jul_07_1709,toilet,2021.1.3,99.80796946564436,
0,0,-4,4,1.06,,,,,0,0,0,0,0,17,17,5,,,,,,,,,,,,,,,,,,,,,,,408.1614908000047,None,408.1614908000047,None,407.6610621,None,j,0.5668902000033995,408.1614908000047,None,,,,,,,,,,,,,m,001,2021_Jul_07_1709,toilet,2021.1.3,99.80796946564436,
0,0,4,-4,0.97,,,,,0,0,0,0,0,18,18,9,,,,,,,,,,,,,,,,,,,,,,,409.7425105000002,None,409.7425105000002,None,409.2422360000055,None,j,0.969779799997923,409.7425105000002,None,,,,,,,,,,,,,m,001,2021_Jul_07_1709,toilet,2021.1.3,99.80796946564436,
180,0,-4,4,1.03,,,,,0,0,0,0,0,19,19,46,,,,,,,,,,,,,,,,,,,,,,,411.713811499998,None,411.713811499998,None,411.21349370000826,None,f,2.246652700006962,411.713811499998,None,,,,,,,,,,,,,m,001,2021_Jul_07_1709,toilet,2021.1.3,99.80796946564436,
0,0,4,-4,1.06,,,,,0,0,0,0,0,20,20,12,,,,,,,,,,,,,,,,,,,,,,,414.97611050000705,None,414.97611050000705,None,414.47571349999635,None,f,1.432414199996856,414.97611050000705,None,,,,,,,,,,,,,m,001,2021_Jul_07_1709,toilet,2021.1.3,99.80796946564436,
180,0,4,-4,0.97,,,,,0,0,0,0,0,21,21,51,,,,,,,,,,,,,,,,,,,,,,,417.42769260000205,None,417.42769260000205,None,416.92734560000827,None,j,1.828600600012578,417.42769260000205,None,,,,,,,,,,,,,m,001,2021_Jul_07_1709,toilet,2021.1.3,99.80796946564436,
0,0,4,-4,1.0,,,,,0,0,0,0,0,22,22,10,,,,,,,,,,,,,,,,,,,,,,,420.2596040000062,None,420.2596040000062,None,419.75926320000144,None,j,1.6368444999970961,420.2596040000062,None,,,,,,,,,,,,,m,001,2021_Jul_07_1709,toilet,2021.1.3,99.80796946564436,
0,0,-4,4,0.94,,,,,0,0,0,0,0,23,23,1,,,,,,,,,,,,,,,,,,,,,,,422.91140270000324,None,422.91140270000324,None,422.41114560001006,None,f,0.6968348999944283,422.91140270000324,None,,,,,,,,,,,,,m,001,2021_Jul_07_1709,toilet,2021.1.3,99.80796946564436,
180,0,-4,4,0.85,,,,,0,0,0,0,0,24,24,42,,,,,,,,,,,,,,,,,,,,,,,424.6125893999997,None,424.6125893999997,None,424.11231170000974,None,f,0.8837073000031523,424.6125893999997,None,,,,,,,,,,,,,m,001,2021_Jul_07_1709,toilet,2021.1.3,99.80796946564436,
0,180,4,-4,0.97,,,,,0,0,0,0,0,25,25,23,,,,,,,,,,,,,,,,,,,,,,,426.5038397000026,None,426.5038397000026,None,426.00350069999695,None,j,0.7525548999983585,426.5038397000026,None,,,,,,,,,,,,,m,001,2021_Jul_07_1709,toilet,2021.1.3,99.80796946564436,
0,180,-4,4,1.15,,,,,0,0,0,0,0,26,26,20,,,,,,,,,,,,,,,,,,,,,,,428.27504300000146,None,428.27504300000146,None,427.77469869999913,None,j,0.4854683000012301,428.27504300000146,None,,,,,,,,,,,,,m,001,2021_Jul_07_1709,toilet,2021.1.3,99.80796946564436,
180,0,-4,4,1.06,,,,,0,0,0,0,0,27,27,47,,,,,,,,,,,,,,,,,,,,,,,429.77606319999904,None,429.77606319999904,None,429.27572269999655,None,j,1.2562405000062427,429.77606319999904,None,,,,,,,,,,,,,m,001,2021_Jul_07_1709,toilet,2021.1.3,99.80796946564436,
180,180,-4,4,1.06,,,,,0,0,0,0,0,28,28,33,,,,,,,,,,,,,,,,,,,,,,,432.04764040000737,None,432.04764040000737,None,431.5473334999988,None,j,0.7608344000036595,432.04764040000737,None,,,,,,,,,,,,,m,001,2021_Jul_07_1709,toilet,2021.1.3,99.80796946564436,
0,0,-4,4,1.15,,,,,0,0,0,0,0,29,29,6,,,,,,,,,,,,,,,,,,,,,,,433.8087968000036,None,433.8087968000036,None,433.3084525000013,None,j,0.5994963999983156,433.8087968000036,None,,,,,,,,,,,,,m,001,2021_Jul_07_1709,toilet,2021.1.3,99.80796946564436,
0,180,-4,4,0.97,,,,,0,0,0,0,0,30,30,16,,,,,,,,,,,,,,,,,,,,,,,435.409879800005,None,435.409879800005,None,434.9095452000038,None,f,2.8704758000094444,435.409879800005,None,,,,,,,,,,,,,m,001,2021_Jul_07_1709,toilet,2021.1.3,99.80796946564436,
0,180,4,-4,0.94,,,,,0,0,0,0,0,31,31,22,,,,,,,,,,,,,,,,,,,,,,,439.29254560000845,None,439.29254560000845,None,438.7922489000048,None,f,1.035740999999689,439.29254560000845,None,,,,,,,,,,,,,m,001,2021_Jul_07_1709,toilet,2021.1.3,99.80796946564436,
0,0,4,-4,1.15,,,,,0,0,0,0,0,32,32,13,,,,,,,,,,,,,,,,,,,,,,,441.3338957000087,None,441.3338957000087,None,440.8335630000074,None,f,0.7385625000024447,441.3338957000087,None,,,,,,,,,,,,,m,001,2021_Jul_07_1709,toilet,2021.1.3,99.80796946564436,
0,180,4,-4,1.06,,,,,0,0,0,0,0,33,33,26,,,,,,,,,,,,,,,,,,,,,,,443.08508420000726,None,443.08508420000726,None,442.5847705000051,None,f,0.7632450000091922,443.08508420000726,None,,,,,,,,,,,,,m,001,2021_Jul_07_1709,toilet,2021.1.3,99.80796946564436,
0,180,-4,4,1.03,,,,,0,0,0,0,0,34,34,18,,,,,,,,,,,,,,,,,,,,,,,444.85637660000066,None,444.85637660000066,None,444.3559440999961,None,j,1.4079589000029955,444.85637660000066,None,,,,,,,,,,,,,m,001,2021_Jul_07_1709,toilet,2021.1.3,99.80796946564436,
180,0,4,-4,1.06,,,,,0,0,0,0,0,35,35,54,,,,,,,,,,,,,,,,,,,,,,,447.2779248000006,None,447.2779248000006,None,446.77767950001,None,f,1.9463589999941178,447.2779248000006,None,,,,,,,,,,,,,m,001,2021_Jul_07_1709,toilet,2021.1.3,99.80796946564436,
0,0,-4,4,1.03,,,,,0,0,0,0,0,36,36,4,,,,,,,,,,,,,,,,,,,,,,,450.2299292000098,None,450.2299292000098,None,449.72959250000713,None,j,1.698453300006804,450.2299292000098,None,,,,,,,,,,,,,m,001,2021_Jul_07_1709,toilet,2021.1.3,99.80796946564436,
0,180,-4,4,0.85,,,,,0,0,0,0,0,37,37,14,,,,,,,,,,,,,,,,,,,,,,,452.93184920000203,None,452.93184920000203,None,452.4315101999964,None,f,1.284514200000558,452.93184920000203,None,,,,,,,,,,,,,m,001,2021_Jul_07_1709,toilet,2021.1.3,99.80796946564436,
0,180,4,-4,1.15,,,,,0,0,0,0,0,38,38,27,,,,,,,,,,,,,,,,,,,,,,,455.233309999996,None,455.233309999996,None,454.7329838000005,None,f,2.423102500004461,455.233309999996,None,,,,,,,,,,,,,m,001,2021_Jul_07_1709,toilet,2021.1.3,99.80796946564436,
0,180,4,-4,0.85,,,,,0,0,0,0,0,39,39,21,,,,,,,,,,,,,,,,,,,,,,,458.66565280000214,None,458.66565280000214,None,458.16530560000683,None,j,0.6067561999952886,458.66565280000214,None,,,,,,,,,,,,,m,001,2021_Jul_07_1709,toilet,2021.1.3,99.80796946564436,
0,180,4,-4,1.03,,,,,0,0,0,0,0,40,40,25,,,,,,,,,,,,,,,,,,,,,,,460.29685210000025,None,460.29685210000025,None,459.79642060000333,None,f,0.783598299996811,460.29685210000025,None,,,,,,,,,,,,,m,001,2021_Jul_07_1709,toilet,2021.1.3,99.80796946564436,
180,0,-4,4,1.15,,,,,0,0,0,0,0,41,41,48,,,,,,,,,,,,,,,,,,,,,,,462.0979708000086,None,462.0979708000086,None,461.59765640000114,None,j,0.582443899998907,462.0979708000086,None,,,,,,,,,,,,,m,001,2021_Jul_07_1709,toilet,2021.1.3,99.80796946564436,
180,180,-4,4,1.03,,,,,0,0,0,0,0,42,42,32,,,,,,,,,,,,,,,,,,,,,,,463.68905220000306,None,463.68905220000306,None,463.18871729999955,None,j,0.863322999997763,463.68905220000306,None,,,,,,,,,,,,,m,001,2021_Jul_07_1709,toilet,2021.1.3,99.80796946564436,
0,180,-4,4,1.06,,,,,0,0,0,0,0,43,43,19,,,,,,,,,,,,,,,,,,,,,,,465.5703338000021,None,465.5703338000021,None,465.0699875999999,None,j,0.5341318999999203,465.5703338000021,None,,,,,,,,,,,,,m,001,2021_Jul_07_1709,toilet,2021.1.3,99.80796946564436,
180,0,-4,4,0.97,,,,,0,0,0,0,0,44,44,44,,,,,,,,,,,,,,,,,,,,,,,467.1213779999962,None,467.1213779999962,None,466.62104140000883,None,f,0.5509281999984523,467.1213779999962,None,,,,,,,,,,,,,m,001,2021_Jul_07_1709,toilet,2021.1.3,99.80796946564436,
180,0,4,-4,0.85,,,,,0,0,0,0,0,45,45,49,,,,,,,,,,,,,,,,,,,,,,,468.6725204999966,None,468.6725204999966,None,468.1721855000069,None,j,0.5677389000047697,468.6725204999966,None,,,,,,,,,,,,,m,001,2021_Jul_07_1709,toilet,2021.1.3,99.80796946564436,
180,0,-4,4,1.0,,,,,0,0,0,0,0,46,46,45,,,,,,,,,,,,,,,,,,,,,,,470.2434939000086,None,470.2434939000086,None,469.7431523999985,None,f,0.580898200001684,470.2434939000086,None,,,,,,,,,,,,,m,001,2021_Jul_07_1709,toilet,2021.1.3,99.80796946564436,
180,180,-4,4,0.97,,,,,0,0,0,0,0,47,47,30,,,,,,,,,,,,,,,,,,,,,,,471.8245692000055,None,471.8245692000055,None,471.3242268000031,None,f,0.7276952999964124,471.8245692000055,None,,,,,,,,,,,,,m,001,2021_Jul_07_1709,toilet,2021.1.3,99.80796946564436,
180,180,4,-4,1.06,,,,,0,0,0,0,0,48,48,40,,,,,,,,,,,,,,,,,,,,,,,473.5557464000012,None,473.5557464000012,None,473.05540720000863,None,f,0.7567054999963148,473.5557464000012,None,,,,,,,,,,,,,m,001,2021_Jul_07_1709,toilet,2021.1.3,99.80796946564436,
0,0,4,-4,0.85,,,,,0,0,0,0,0,49,49,7,,,,,,,,,,,,,,,,,,,,,,,475.32704220000596,None,475.32704220000596,None,474.8266985000082,None,j,0.5853191000060178,475.32704220000596,None,,,,,,,,,,,,,m,001,2021_Jul_07_1709,toilet,2021.1.3,99.80796946564436,
180,180,4,-4,1.15,,,,,0,0,0,0,0,50,50,41,,,,,,,,,,,,,,,,,,,,,,,476.92802870000014,None,476.92802870000014,None,476.42770949999976,None,f,0.5523332000011578,476.92802870000014,None,,,,,,,,,,,,,m,001,2021_Jul_07_1709,toilet,2021.1.3,99.80796946564436,
0,180,-4,4,0.94,,,,,0,0,0,0,0,51,51,15,,,,,,,,,,,,,,,,,,,,,,,478.4890893999982,None,478.4890893999982,None,477.98875250000856,None,f,0.7353412999946158,478.4890893999982,None,,,,,,,,,,,,,m,001,2021_Jul_07_1709,toilet,2021.1.3,99.80796946564436,
0,0,4,-4,0.94,,,,,0,0,0,0,0,52,52,8,,,,,,,,,,,,,,,,,,,,,,,480.2403248000046,None,480.2403248000046,None,479.7399404000025,None,j,0.4880842999991728,480.2403248000046,None,,,,,,,,,,,,,m,001,2021_Jul_07_1709,toilet,2021.1.3,99.80796946564436,
0,0,-4,4,0.97,,,,,0,0,0,0,0,53,53,2,,,,,,,,,,,,,,,,,,,,,,,481.7412977000058,None,481.7412977000058,None,481.24096760000975,None,f,3.930944099993212,481.7412977000058,None,,,,,,,,,,,,,m,001,2021_Jul_07_1709,toilet,2021.1.3,99.80796946564436,
180,180,-4,4,0.94,,,,,0,0,0,0,0,54,54,29,,,,,,,,,,,,,,,,,,,,,,,486.6746397000097,None,486.6746397000097,None,486.17430369999784,None,f,0.7897335000016028,486.6746397000097,None,,,,,,,,,,,,,m,001,2021_Jul_07_1709,toilet,2021.1.3,99.80796946564436,
0,180,4,-4,1.0,,,,,0,0,0,0,0,55,55,24,,,,,,,,,,,,,,,,,,,,,,,488.4758628999989,None,488.4758628999989,None,487.9755240000086,None,f,0.5404558000009274,488.4758628999989,None,,,,,,,,,,,,,m,001,2021_Jul_07_1709,toilet,2021.1.3,99.80796946564436,
180,0,4,-4,0.97,,,,,0,0,0,0,1,0,56,51,,,,,,,,,,,,,,,,,,,,,,,490.02699199999915,None,490.02699199999915,None,489.52661430000444,None,j,0.5573743999993894,490.02699199999915,None,,,,,,,,,,,,,m,001,2021_Jul_07_1709,toilet,2021.1.3,99.80796946564436,
180,0,4,-4,1.06,,,,,0,0,0,0,1,1,57,54,,,,,,,,,,,,,,,,,,,,,,,491.597969800001,None,491.597969800001,None,491.09763440000825,None,f,1.0342801999941003,491.597969800001,None,,,,,,,,,,,,,m,001,2021_Jul_07_1709,toilet,2021.1.3,99.80796946564436,
0,0,-4,4,1.15,,,,,0,0,0,0,1,2,58,6,,,,,,,,,,,,,,,,,,,,,,,493.6393587000057,None,493.6393587000057,None,493.13902220000455,None,j,0.5451532000006409,493.6393587000057,None,,,,,,,,,,,,,m,001,2021_Jul_07_1709,toilet,2021.1.3,99.80796946564436,
180,0,-4,4,0.94,,,,,0,0,0,0,1,3,59,43,,,,,,,,,,,,,,,,,,,,,,,495.2104316000041,None,495.2104316000041,None,494.71008319999964,None,f,0.5578211999963969,495.2104316000041,None,,,,,,,,,,,,,m,001,2021_Jul_07_1709,toilet,2021.1.3,99.80796946564436,
0,180,4,-4,1.0,,,,,0,0,0,0,1,4,60,24,,,,,,,,,,,,,,,,,,,,,,,496.78158510000503,None,496.78158510000503,None,496.28115080000134,None,f,0.8267485000105808,496.78158510000503,None,,,,,,,,,,,,,m,001,2021_Jul_07_1709,toilet,2021.1.3,99.80796946564436,
0,180,-4,4,1.06,,,,,0,0,0,0,1,5,61,19,,,,,,,,,,,,,,,,,,,,,,,498.6227469000005,None,498.6227469000005,None,498.12249280000106,None,j,0.5535036999935983,498.6227469000005,None,,,,,,,,,,,,,m,001,2021_Jul_07_1709,toilet,2021.1.3,99.80796946564436,
180,180,-4,4,1.15,,,,,0,0,0,0,1,6,62,34,,,,,,,,,,,,,,,,,,,,,,,500.1838048000063,None,500.1838048000063,None,499.6834630000085,None,j,0.5606606999936048,500.1838048000063,None,,,,,,,,,,,,,m,001,2021_Jul_07_1709,toilet,2021.1.3,99.80796946564436,
180,0,4,-4,0.85,,,,,0,0,0,0,1,7,63,49,,,,,,,,,,,,,,,,,,,,,,,501.74486560000514,None,501.74486560000514,None,501.24452629999723,None,j,0.5514743999956409,501.74486560000514,None,,,,,,,,,,,,,m,001,2021_Jul_07_1709,toilet,2021.1.3,99.80796946564436,
180,180,-4,4,1.0,,,,,0,0,0,0,1,8,64,31,,,,,,,,,,,,,,,,,,,,,,,503.3059188000043,None,503.3059188000043,None,502.8055785000033,None,f,1.3745584999996936,503.3059188000043,None,,,,,,,,,,,,,m,001,2021_Jul_07_1709,toilet,2021.1.3,99.80796946564436,
180,0,-4,4,0.97,,,,,0,0,0,0,1,9,65,44,,,,,,,,,,,,,,,,,,,,,,,505.69757489999756,None,505.69757489999756,None,505.19733290000295,None,f,0.8227711000072304,505.69757489999756,None,,,,,,,,,,,,,m,001,2021_Jul_07_1709,toilet,2021.1.3,99.80796946564436,
0,0,4,-4,1.06,,,,,0,0,0,0,1,10,66,12,,,,,,,,,,,,,,,,,,,,,,,507.528779100001,None,507.528779100001,None,507.0284435000067,None,f,0.8795434999919962,507.528779100001,None,,,,,,,,,,,,,m,001,2021_Jul_07_1709,toilet,2021.1.3,99.80796946564436,
180,180,4,-4,1.06,,,,,0,0,0,0,1,11,67,40,,,,,,,,,,,,,,,,,,,,,,,509.4100641999976,None,509.4100641999976,None,508.9097277999972,None,f,0.7264514999988023,509.4100641999976,None,,,,,,,,,,,,,m,001,2021_Jul_07_1709,toilet,2021.1.3,99.80796946564436,
0,180,4,-4,1.06,,,,,0,0,0,0,1,12,68,26,,,,,,,,,,,,,,,,,,,,,,,511.1512366000097,None,511.1512366000097,None,510.65090580000833,None,f,3.4172583000035957,511.1512366000097,None,,,,,,,,,,,,,m,001,2021_Jul_07_1709,toilet,2021.1.3,99.80796946564436,
0,0,-4,4,1.06,,,,,0,0,0,0,1,13,69,5,,,,,,,,,,,,,,,,,,,,,,,515.5742394999979,None,515.5742394999979,None,515.0738980000024,None,j,0.6420064999983879,515.5742394999979,None,,,,,,,,,,,,,m,001,2021_Jul_07_1709,toilet,2021.1.3,99.80796946564436,
180,180,-4,4,1.03,,,,,0,0,0,0,1,14,70,32,,,,,,,,,,,,,,,,,,,,,,,517.2253559000092,None,517.2253559000092,None,516.7250244000024,None,j,0.6230569000035757,517.2253559000092,None,,,,,,,,,,,,,m,001,2021_Jul_07_1709,toilet,2021.1.3,99.80796946564436,
0,180,-4,4,1.0,,,,,0,0,0,0,1,15,71,17,,,,,,,,,,,,,,,,,,,,,,,518.8664737000072,None,518.8664737000072,None,518.3662349000078,None,j,0.5660487999994075,518.8664737000072,None,,,,,,,,,,,,,m,001,2021_Jul_07_1709,toilet,2021.1.3,99.80796946564436,
0,0,4,-4,0.94,,,,,0,0,0,0,1,16,72,8,,,,,,,,,,,,,,,,,,,,,,,520.4475265000074,None,520.4475265000074,None,519.9472977999976,None,j,0.5686700999940513,520.4475265000074,None,,,,,,,,,,,,,m,001,2021_Jul_07_1709,toilet,2021.1.3,99.80796946564436,
180,180,4,-4,0.94,,,,,0,0,0,0,1,17,73,36,,,,,,,,,,,,,,,,,,,,,,,522.0186097999976,None,522.0186097999976,None,521.5182685000036,None,j,0.6456350999942515,522.0186097999976,None,,,,,,,,,,,,,m,001,2021_Jul_07_1709,toilet,2021.1.3,99.80796946564436,
0,180,-4,4,1.03,,,,,0,0,0,0,1,18,74,18,,,,,,,,,,,,,,,,,,,,,,,523.6697315000056,None,523.6697315000056,None,523.1693949000037,None,j,0.626567499988596,523.6697315000056,None,,,,,,,,,,,,,m,001,2021_Jul_07_1709,toilet,2021.1.3,99.80796946564436,
0,180,-4,4,0.94,,,,,0,0,0,0,1,19,75,15,,,,,,,,,,,,,,,,,,,,,,,525.3008317000058,None,525.3008317000058,None,524.8004943999986,None,j,1.427637999993749,525.3008317000058,None,,,,,,,,,,,,,m,001,2021_Jul_07_1709,toilet,2021.1.3,99.80796946564436,
0,180,-4,4,0.97,,,,,0,0,0,0,1,20,76,16,,,,,,,,,,,,,,,,,,,,,,,527.7425225000043,None,527.7425225000043,None,527.242247000002,None,f,1.5457663999986835,527.7425225000043,None,,,,,,,,,,,,,m,001,2021_Jul_07_1709,toilet,2021.1.3,99.80796946564436,
0,180,4,-4,0.97,,,,,0,0,0,0,1,21,77,23,,,,,,,,,,,,,,,,,,,,,,,530.2942190000031,None,530.2942190000031,None,529.7938873000094,None,j,2.082127000001492,530.2942190000031,None,,,,,,,,,,,,,m,001,2021_Jul_07_1709,toilet,2021.1.3,99.80796946564436,
180,0,-4,4,0.85,,,,,0,0,0,0,1,22,78,42,,,,,,,,,,,,,,,,,,,,,,,533.3863213000004,None,533.3863213000004,None,532.8859838000062,None,f,0.669984399995883,533.3863213000004,None,,,,,,,,,,,,,m,001,2021_Jul_07_1709,toilet,2021.1.3,99.80796946564436,
180,180,4,-4,0.85,,,,,0,0,0,0,1,23,79,35,,,,,,,,,,,,,,,,,,,,,,,535.0674894999975,None,535.0674894999975,None,534.5671176000033,None,j,0.5887326000083704,535.0674894999975,None,,,,,,,,,,,,,m,001,2021_Jul_07_1709,toilet,2021.1.3,99.80796946564436,
180,180,-4,4,0.97,,,,,0,0,0,0,1,24,80,30,,,,,,,,,,,,,,,,,,,,,,,536.6585243000009,None,536.6585243000009,None,536.1581985000084,None,f,1.6537856999930227,536.6585243000009,None,,,,,,,,,,,,,m,001,2021_Jul_07_1709,toilet,2021.1.3,99.80796946564436,
180,180,4,-4,1.03,,,,,0,0,0,0,1,25,81,39,,,,,,,,,,,,,,,,,,,,,,,539.3203394000011,None,539.3203394000011,None,538.8200049000006,None,f,1.3440857999958098,539.3203394000011,None,,,,,,,,,,,,,m,001,2021_Jul_07_1709,toilet,2021.1.3,99.80796946564436,
180,180,-4,4,1.06,,,,,0,0,0,0,1,26,82,33,,,,,,,,,,,,,,,,,,,,,,,541.6820155000023,None,541.6820155000023,None,541.1815936000057,None,j,0.6623598000005586,541.6820155000023,None,,,,,,,,,,,,,m,001,2021_Jul_07_1709,toilet,2021.1.3,99.80796946564436,
180,180,4,-4,1.15,,,,,0,0,0,0,1,27,83,41,,,,,,,,,,,,,,,,,,,,,,,543.3630757000064,None,543.3630757000064,None,542.8627375000069,None,f,0.597177500007092,543.3630757000064,None,,,,,,,,,,,,,m,001,2021_Jul_07_1709,toilet,2021.1.3,99.80796946564436,
180,0,4,-4,0.94,,,,,0,0,0,0,1,28,84,50,,,,,,,,,,,,,,,,,,,,,,,544.9642010000098,None,544.9642010000098,None,544.4638207000098,None,j,0.6761802999972133,544.9642010000098,None,,,,,,,,,,,,,m,001,2021_Jul_07_1709,toilet,2021.1.3,99.80796946564436,
180,0,-4,4,1.03,,,,,0,0,0,0,1,29,85,46,,,,,,,,,,,,,,,,,,,,,,,546.6453132000024,None,546.6453132000024,None,546.1449767000013,None,j,0.9150561000133166,546.6453132000024,None,,,,,,,,,,,,,m,001,2021_Jul_07_1709,toilet,2021.1.3,99.80796946564436,
0,0,-4,4,0.94,,,,,0,0,0,0,1,30,86,1,,,,,,,,,,,,,,,,,,,,,,,548.5767169000028,None,548.5767169000028,None,548.076312899997,None,f,1.3036441000003833,548.5767169000028,None,,,,,,,,,,,,,m,001,2021_Jul_07_1709,toilet,2021.1.3,99.80796946564436,
0,180,4,-4,0.85,,,,,0,0,0,0,1,31,87,21,,,,,,,,,,,,,,,,,,,,,,,550.8981927999994,None,550.8981927999994,None,550.3978559000097,None,j,0.5981082000071183,550.8981927999994,None,,,,,,,,,,,,,m,001,2021_Jul_07_1709,toilet,2021.1.3,99.80796946564436,
180,180,-4,4,0.94,,,,,0,0,0,0,1,32,88,29,,,,,,,,,,,,,,,,,,,,,,,552.499272800007,None,552.499272800007,None,551.9989313999977,None,f,1.301224100010586,552.499272800007,None,,,,,,,,,,,,,m,001,2021_Jul_07_1709,toilet,2021.1.3,99.80796946564436,
0,0,4,-4,1.0,,,,,0,0,0,0,1,33,89,10,,,,,,,,,,,,,,,,,,,,,,,554.8109381999966,None,554.8109381999966,None,554.3104995000031,None,j,3.7732358000066597,554.8109381999966,None,,,,,,,,,,,,,m,001,2021_Jul_07_1709,toilet,2021.1.3,99.80796946564436,
180,0,4,-4,1.15,,,,,0,0,0,0,1,34,90,55,,,,,,,,,,,,,,,,,,,,,,,559.5840826000058,None,559.5840826000058,None,559.0837432999979,None,f,0.6802341000002343,559.5840826000058,None,,,,,,,,,,,,,m,001,2021_Jul_07_1709,toilet,2021.1.3,99.80796946564436,
0,0,4,-4,0.97,,,,,0,0,0,0,1,35,91,9,,,,,,,,,,,,,,,,,,,,,,,561.2752256000094,None,561.2752256000094,None,560.7748980000033,None,j,0.7651397000008728,561.2752256000094,None,,,,,,,,,,,,,m,001,2021_Jul_07_1709,toilet,2021.1.3,99.80796946564436,
0,0,-4,4,0.97,,,,,0,0,0,0,1,36,92,2,,,,,,,,,,,,,,,,,,,,,,,563.0565749000089,None,563.0565749000089,None,562.556098400004,None,f,0.6317991999967489,563.0565749000089,None,,,,,,,,,,,,,m,001,2021_Jul_07_1709,toilet,2021.1.3,99.80796946564436,
180,0,4,-4,1.03,,,,,0,0,0,0,1,37,93,53,,,,,,,,,,,,,,,,,,,,,,,564.6975523000001,None,564.6975523000001,None,564.1972822000098,None,j,0.5266286999976728,564.6975523000001,None,,,,,,,,,,,,,m,001,2021_Jul_07_1709,toilet,2021.1.3,99.80796946564436,
0,180,4,-4,1.03,,,,,0,0,0,0,1,38,94,25,,,,,,,,,,,,,,,,,,,,,,,566.2285885000019,None,566.2285885000019,None,565.7282481000002,None,f,0.5796527999918908,566.2285885000019,None,,,,,,,,,,,,,m,001,2021_Jul_07_1709,toilet,2021.1.3,99.80796946564436,
180,0,-4,4,1.06,,,,,0,0,0,0,1,39,95,47,,,,,,,,,,,,,,,,,,,,,,,567.8096596999967,None,567.8096596999967,None,567.3093403000094,None,f,0.6465561999939382,567.8096596999967,None,,,,,,,,,,,,,m,001,2021_Jul_07_1709,toilet,2021.1.3,99.80796946564436,
0,180,-4,4,0.85,,,,,0,0,0,0,1,40,96,14,,,,,,,,,,,,,,,,,,,,,,,569.4607764999964,None,569.4607764999964,None,568.960440099996,None,f,0.531561600000714,569.4607764999964,None,,,,,,,,,,,,,m,001,2021_Jul_07_1709,toilet,2021.1.3,99.80796946564436,
0,180,-4,4,1.15,,,,,0,0,0,0,1,41,97,20,,,,,,,,,,,,,,,,,,,,,,,571.0018626000092,None,571.0018626000092,None,570.5015697000053,None,j,0.5264532000001054,571.0018626000092,None,,,,,,,,,,,,,m,001,2021_Jul_07_1709,toilet,2021.1.3,99.80796946564436,
0,180,4,-4,0.94,,,,,0,0,0,0,1,42,98,22,,,,,,,,,,,,,,,,,,,,,,,572.5428721000062,None,572.5428721000062,None,572.0425648000091,None,f,0.8093465999991167,572.5428721000062,None,,,,,,,,,,,,,m,001,2021_Jul_07_1709,toilet,2021.1.3,99.80796946564436,
180,0,-4,4,1.15,,,,,0,0,0,0,1,43,99,48,,,,,,,,,,,,,,,,,,,,,,,574.3540983999992,None,574.3540983999992,None,573.8537701000023,None,j,0.9983020000072429,574.3540983999992,None,,,,,,,,,,,,,m,001,2021_Jul_07_1709,toilet,2021.1.3,99.80796946564436,
0,180,4,-4,1.15,,,,,0,0,0,0,1,44,100,27,,,,,,,,,,,,,,,,,,,,,,,576.3654631999962,None,576.3654631999962,None,575.8651253999997,None,f,0.602869099995587,576.3654631999962,None,,,,,,,,,,,,,m,001,2021_Jul_07_1709,toilet,2021.1.3,99.80796946564436,
180,0,-4,4,1.0,,,,,0,0,0,0,1,45,101,45,,,,,,,,,,,,,,,,,,,,,,,577.9766269000102,None,577.9766269000102,None,577.4762071000005,None,f,0.9917638999904739,577.9766269000102,None,,,,,,,,,,,,,m,001,2021_Jul_07_1709,toilet,2021.1.3,99.80796946564436,
0,0,4,-4,1.15,,,,,0,0,0,0,1,46,102,13,,,,,,,,,,,,,,,,,,,,,,,579.977921800004,None,579.977921800004,None,579.4776055999973,None,f,0.6223552000010386,579.977921800004,None,,,,,,,,,,,,,m,001,2021_Jul_07_1709,toilet,2021.1.3,99.80796946564436,
0,0,-4,4,0.85,,,,,0,0,0,0,1,47,103,0,,,,,,,,,,,,,,,,,,,,,,,581.5990102000069,None,581.5990102000069,None,581.0986735000042,None,f,0.5052047000062885,581.5990102000069,None,,,,,,,,,,,,,m,001,2021_Jul_07_1709,toilet,2021.1.3,99.80796946564436,
180,180,-4,4,0.85,,,,,0,0,0,0,1,48,104,28,,,,,,,,,,,,,,,,,,,,,,,583.1100445000047,None,583.1100445000047,None,582.6097177000047,None,f,0.46618189998844173,583.1100445000047,None,,,,,,,,,,,,,m,001,2021_Jul_07_1709,toilet,2021.1.3,99.80796946564436,
180,180,4,-4,1.0,,,,,0,0,0,0,1,49,105,38,,,,,,,,,,,,,,,,,,,,,,,584.5911113000038,None,584.5911113000038,None,584.0906965000031,None,f,0.7611692999926163,584.5911113000038,None,,,,,,,,,,,,,m,001,2021_Jul_07_1709,toilet,2021.1.3,99.80796946564436,
0,0,4,-4,1.03,,,,,0,0,0,0,1,50,106,11,,,,,,,,,,,,,,,,,,,,,,,586.362315300008,None,586.362315300008,None,585.8619062000071,None,f,0.5739254999934928,586.362315300008,None,,,,,,,,,,,,,m,001,2021_Jul_07_1709,toilet,2021.1.3,99.80796946564436,
0,0,-4,4,1.0,,,,,0,0,0,0,1,51,107,3,,,,,,,,,,,,,,,,,,,,,,,587.9433125000069,None,587.9433125000069,None,587.4429772000003,None,f,0.4330551999883028,587.9433125000069,None,,,,,,,,,,,,,m,001,2021_Jul_07_1709,toilet,2021.1.3,99.80796946564436,
180,180,4,-4,0.97,,,,,0,0,0,0,1,52,108,37,,,,,,,,,,,,,,,,,,,,,,,589.3842927000078,None,589.3842927000078,None,588.8839527000091,None,j,0.5441766000003554,589.3842927000078,None,,,,,,,,,,,,,m,001,2021_Jul_07_1709,toilet,2021.1.3,99.80796946564436,
0,0,-4,4,1.03,,,,,0,0,0,0,1,53,109,4,,,,,,,,,,,,,,,,,,,,,,,590.9453486999992,None,590.9453486999992,None,590.4450063999975,None,j,0.8708849999966333,590.9453486999992,None,,,,,,,,,,,,,m,001,2021_Jul_07_1709,toilet,2021.1.3,99.80796946564436,
0,0,4,-4,0.85,,,,,0,0,0,0,1,54,110,7,,,,,,,,,,,,,,,,,,,,,,,592.8167014000064,None,592.8167014000064,None,592.3162772000069,None,j,0.5517418999952497,592.8167014000064,None,,,,,,,,,,,,,m,001,2021_Jul_07_1709,toilet,2021.1.3,99.80796946564436,
180,0,4,-4,1.0,,,,,0,0,0,0,1,55,111,52,,,,,,,,,,,,,,,,,,,,,,,594.3776843000087,None,594.3776843000087,None,593.8774198000028,None,j,2.366524600001867,594.3776843000087,None,,,,,,,,,,,,,m,001,2021_Jul_07_1709,toilet,2021.1.3,99.80796946564436,
,,,,,,,,,0,0,0,0,,,,,,,,,,,,,,,,,,,,,,,,,,,,,,,,,,,,,596.7592905000056,None,space,2.289140299995779,596.7592905000056,None,,,,,,,m,001,2021_Jul_07_1709,toilet,2021.1.3,99.80796946564436,
180,180,-4,4,1.06,,,,,1,0,1,0,0,0,0,33,,,,,,,,,,,,,,,,,599.070907500005,None,space,2.569413099990925,599.070907500005,None,602.6532872000098,None,602.6532872000098,None,602.1529542000062,None,j,0.9551925999985542,602.6532872000098,None,,,,,,,,,,,,,m,001,2021_Jul_07_1709,toilet,2021.1.3,99.80796946564436,
180,180,4,-4,0.94,,,,,1,0,1,0,0,1,1,36,,,,,,,,,,,,,,,,,,,,,,,604.6246263000066,None,604.6246263000066,None,604.1242851999996,None,j,0.7116814999899361,604.6246263000066,None,,,,,,,,,,,,,m,001,2021_Jul_07_1709,toilet,2021.1.3,99.80796946564436,
180,180,-4,4,1.15,,,,,1,0,1,0,0,2,2,34,,,,,,,,,,,,,,,,,,,,,,,606.3457923000096,None,606.3457923000096,None,605.8454547000001,None,j,0.6546078999963356,606.3457923000096,None,,,,,,,,,,,,,m,001,2021_Jul_07_1709,toilet,2021.1.3,99.80796946564436,
0,180,-4,4,0.85,,,,,1,0,1,0,0,3,3,14,,,,,,,,,,,,,,,,,,,,,,,608.0170004000101,None,608.0170004000101,None,607.5165865000017,None,f,0.5672748000069987,608.0170004000101,None,,,,,,,,,,,,,m,001,2021_Jul_07_1709,toilet,2021.1.3,99.80796946564436,
0,180,-4,4,0.94,,,,,1,0,1,0,0,4,4,15,,,,,,,,,,,,,,,,,,,,,,,609.5879917999991,None,609.5879917999991,None,609.0876889000065,None,f,0.7082000999944285,609.5879917999991,None,,,,,,,,,,,,,m,001,2021_Jul_07_1709,toilet,2021.1.3,99.80796946564436,
0,0,4,-4,1.0,,,,,1,0,1,0,0,5,5,10,,,,,,,,,,,,,,,,,,,,,,,611.2991703000007,None,611.2991703000007,None,610.7988127999997,None,j,1.4290670999907888,611.2991703000007,None,,,,,,,,,,,,,m,001,2021_Jul_07_1709,toilet,2021.1.3,99.80796946564436,
180,180,-4,4,1.03,,,,,1,0,1,0,0,6,6,32,,,,,,,,,,,,,,,,,,,,,,,613.7308047999977,None,613.7308047999977,None,613.2304618000053,None,j,1.285576599999331,613.7308047999977,None,,,,,,,,,,,,,m,001,2021_Jul_07_1709,toilet,2021.1.3,99.80796946564436,
180,0,-4,4,0.94,,,,,1,0,1,0,0,7,7,43,,,,,,,,,,,,,,,,,,,,,,,616.0323990000034,None,616.0323990000034,None,615.5321001999982,None,f,0.7757907000050182,616.0323990000034,None,,,,,,,,,,,,,m,001,2021_Jul_07_1709,toilet,2021.1.3,99.80796946564436,
180,0,-4,4,1.0,,,,,1,0,1,0,0,8,8,45,,,,,,,,,,,,,,,,,,,,,,,617.8135715000099,None,617.8135715000099,None,617.3132276999968,None,j,2.658867599995574,617.8135715000099,None,,,,,,,,,,,,,m,001,2021_Jul_07_1709,toilet,2021.1.3,99.80796946564436,
0,0,-4,4,1.0,,,,,1,0,1,0,0,9,9,3,,,,,,,,,,,,,,,,,,,,,,,621.486061100004,None,621.486061100004,None,620.9857222999999,None,j,1.146299399988493,621.486061100004,None,,,,,,,,,,,,,m,001,2021_Jul_07_1709,toilet,2021.1.3,99.80796946564436,
180,0,4,-4,0.85,,,,,1,0,1,0,0,10,10,49,,,,,,,,,,,,,,,,,,,,,,,623.6475635999959,None,623.6475635999959,None,623.1471903000056,None,j,0.7766185000073165,623.6475635999959,None,,,,,,,,,,,,,m,001,2021_Jul_07_1709,toilet,2021.1.3,99.80796946564436,
0,180,4,-4,0.94,,,,,1,0,1,0,0,11,11,22,,,,,,,,,,,,,,,,,,,,,,,625.4287328000064,None,625.4287328000064,None,624.9284064000094,None,f,1.859517600008985,625.4287328000064,None,,,,,,,,,,,,,m,001,2021_Jul_07_1709,toilet,2021.1.3,99.80796946564436,
180,180,4,-4,0.97,,,,,1,0,1,0,0,12,12,37,,,,,,,,,,,,,,,,,,,,,,,628.2906652000092,None,628.2906652000092,None,627.8003327000042,None,j,1.605688800002099,628.2906652000092,None,,,,,,,,,,,,,m,001,2021_Jul_07_1709,toilet,2021.1.3,99.80796946564436,
180,180,-4,4,0.94,,,,,1,0,1,0,0,13,13,29,,,,,,,,,,,,,,,,,,,,,,,630.9124838999996,None,630.9124838999996,None,630.4121490999969,None,f,0.7756771999993362,630.9124838999996,None,,,,,,,,,,,,,m,001,2021_Jul_07_1709,toilet,2021.1.3,99.80796946564436,
0,0,4,-4,0.85,,,,,1,0,1,0,0,14,14,7,,,,,,,,,,,,,,,,,,,,,,,632.6936598000029,None,632.6936598000029,None,632.1933144000068,None,j,0.546710599999642,632.6936598000029,None,,,,,,,,,,,,,m,001,2021_Jul_07_1709,toilet,2021.1.3,99.80796946564436,
0,180,-4,4,1.06,,,,,1,0,1,0,0,15,15,19,,,,,,,,,,,,,,,,,,,,,,,634.2547190000041,None,634.2547190000041,None,633.764382399997,None,j,0.5856439999915892,634.2547190000041,None,,,,,,,,,,,,,m,001,2021_Jul_07_1709,toilet,2021.1.3,99.80796946564436,
0,180,-4,4,1.03,,,,,1,0,1,0,0,16,16,18,,,,,,,,,,,,,,,,,,,,,,,635.8557950000104,None,635.8557950000104,None,635.3554594000016,None,j,0.5366205000027549,635.8557950000104,None,,,,,,,,,,,,,m,001,2021_Jul_07_1709,toilet,2021.1.3,99.80796946564436,
0,180,4,-4,1.15,,,,,1,0,1,0,0,17,17,27,,,,,,,,,,,,,,,,,,,,,,,637.3968546999968,None,637.3968546999968,None,636.9065960000007,None,f,0.5314997999957995,637.3968546999968,None,,,,,,,,,,,,,m,001,2021_Jul_07_1709,toilet,2021.1.3,99.80796946564436,
180,0,-4,4,1.15,,,,,1,0,1,0,0,18,18,48,,,,,,,,,,,,,,,,,,,,,,,638.9378966000077,None,638.9378966000077,None,638.4375876999984,None,j,0.5902999000099953,638.9378966000077,None,,,,,,,,,,,,,m,001,2021_Jul_07_1709,toilet,2021.1.3,99.80796946564436,
0,0,-4,4,0.94,,,,,1,0,1,0,0,19,19,1,,,,,,,,,,,,,,,,,,,,,,,640.5289726000046,None,640.5289726000046,None,640.0286292000092,None,f,1.0312475999962771,640.5289726000046,None,,,,,,,,,,,,,m,001,2021_Jul_07_1709,toilet,2021.1.3,99.80796946564436,
180,0,-4,4,1.03,,,,,1,0,1,0,0,20,20,46,,,,,,,,,,,,,,,,,,,,,,,642.5603648999968,None,642.5603648999968,None,642.0600096999988,None,j,4.343925799999852,642.5603648999968,None,,,,,,,,,,,,,m,001,2021_Jul_07_1709,toilet,2021.1.3,99.80796946564436,
0,180,4,-4,0.97,,,,,1,0,1,0,0,21,21,23,,,,,,,,,,,,,,,,,,,,,,,647.9039711000078,None,647.9039711000078,None,647.4036354999989,None,f,8.02433369999926,647.9039711000078,None,,,,,,,,,,,,,m,001,2021_Jul_07_1709,toilet,2021.1.3,99.80796946564436,
0,0,-4,4,1.03,,,,,1,0,1,0,0,22,22,4,,,,,,,,,,,,,,,,,,,,,,,656.9400977000041,None,656.9400977000041,None,656.4397542000079,None,j,0.6522547999920789,656.9400977000041,None,,,,,,,,,,,,,m,001,2021_Jul_07_1709,toilet,2021.1.3,99.80796946564436,
180,180,-4,4,0.85,,,,,1,0,1,0,0,23,23,28,,,,,,,,,,,,,,,,,,,,,,,658.601221600009,None,658.601221600009,None,658.1008928000083,None,f,0.4952281000005314,658.601221600009,None,,,,,,,,,,,,,m,001,2021_Jul_07_1709,toilet,2021.1.3,99.80796946564436,
180,0,4,-4,1.15,,,,,1,0,1,0,0,24,24,55,,,,,,,,,,,,,,,,,,,,,,,660.1123329999973,None,660.1123329999973,None,659.6119100000069,None,f,0.6157854000048246,660.1123329999973,None,,,,,,,,,,,,,m,001,2021_Jul_07_1709,toilet,2021.1.3,99.80796946564436,
0,180,4,-4,0.85,,,,,1,0,1,0,0,25,25,21,,,,,,,,,,,,,,,,,,,,,,,661.7333562999993,None,661.7333562999993,None,661.2330145000014,None,j,0.4988388999918243,661.7333562999993,None,,,,,,,,,,,,,m,001,2021_Jul_07_1709,toilet,2021.1.3,99.80796946564436,
0,180,4,-4,1.06,,,,,1,0,1,0,0,26,26,26,,,,,,,,,,,,,,,,,,,,,,,663.2343989000074,None,663.2343989000074,None,662.7340284000093,None,f,0.5497943000082159,663.2343989000074,None,,,,,,,,,,,,,m,001,2021_Jul_07_1709,toilet,2021.1.3,99.80796946564436,
0,180,4,-4,1.03,,,,,1,0,1,0,0,27,27,25,,,,,,,,,,,,,,,,,,,,,,,664.7954278999969,None,664.7954278999969,None,664.2950883000012,None,f,0.5249447999958647,664.7954278999969,None,,,,,,,,,,,,,m,001,2021_Jul_07_1709,toilet,2021.1.3,99.80796946564436,
0,0,4,-4,0.97,,,,,1,0,1,0,0,28,28,9,,,,,,,,,,,,,,,,,,,,,,,666.336475700009,None,666.336475700009,None,665.8362215000088,None,j,0.5197766000055708,666.336475700009,None,,,,,,,,,,,,,m,001,2021_Jul_07_1709,toilet,2021.1.3,99.80796946564436,
180,0,4,-4,1.03,,,,,1,0,1,0,0,29,29,53,,,,,,,,,,,,,,,,,,,,,,,667.8675255999988,None,667.8675255999988,None,667.367242399996,None,f,0.7966451999964193,667.8675255999988,None,,,,,,,,,,,,,m,001,2021_Jul_07_1709,toilet,2021.1.3,99.80796946564436,
180,0,4,-4,1.0,,,,,1,0,1,0,0,30,30,52,,,,,,,,,,,,,,,,,,,,,,,669.6687307000102,None,669.6687307000102,None,669.168391500003,None,j,0.755517300000065,669.6687307000102,None,,,,,,,,,,,,,m,001,2021_Jul_07_1709,toilet,2021.1.3,99.80796946564436,
0,0,-4,4,0.85,,,,,1,0,1,0,0,31,31,0,,,,,,,,,,,,,,,,,,,,,,,671.4299293000076,None,671.4299293000076,None,670.9295833000069,None,f,0.49833000000217,671.4299293000076,None,,,,,,,,,,,,,m,001,2021_Jul_07_1709,toilet,2021.1.3,99.80796946564436,
180,180,4,-4,0.85,,,,,1,0,1,0,0,32,32,35,,,,,,,,,,,,,,,,,,,,,,,672.9309494000045,None,672.9309494000045,None,672.4306085999997,None,j,0.4692983999993885,672.9309494000045,None,,,,,,,,,,,,,m,001,2021_Jul_07_1709,toilet,2021.1.3,99.80796946564436,
180,0,4,-4,0.97,,,,,1,0,1,0,0,33,33,51,,,,,,,,,,,,,,,,,,,,,,,674.4020376999979,None,674.4020376999979,None,673.9016367000004,None,j,0.48629840000648983,674.4020376999979,None,,,,,,,,,,,,,m,001,2021_Jul_07_1709,toilet,2021.1.3,99.80796946564436,
0,0,4,-4,1.15,,,,,1,0,1,0,0,34,34,13,,,,,,,,,,,,,,,,,,,,,,,675.9029666999995,None,675.9029666999995,None,675.4026203999965,None,f,0.5372276999987662,675.9029666999995,None,,,,,,,,,,,,,m,001,2021_Jul_07_1709,toilet,2021.1.3,99.80796946564436,
180,180,4,-4,1.03,,,,,1,0,1,0,0,35,35,39,,,,,,,,,,,,,,,,,,,,,,,677.4440079000051,None,677.4440079000051,None,676.9436661000072,None,f,0.7563331999990623,677.4440079000051,None,,,,,,,,,,,,,m,001,2021_Jul_07_1709,toilet,2021.1.3,99.80796946564436,
180,180,-4,4,0.97,,,,,1,0,1,0,0,36,36,30,,,,,,,,,,,,,,,,,,,,,,,679.2152074000041,None,679.2152074000041,None,678.7148730000044,None,f,1.0810350999963703,679.2152074000041,None,,,,,,,,,,,,,m,001,2021_Jul_07_1709,toilet,2021.1.3,99.80796946564436,
0,0,-4,4,0.97,,,,,1,0,1,0,0,37,37,2,,,,,,,,,,,,,,,,,,,,,,,681.2966957000026,None,681.2966957000026,None,680.796353800004,None,j,1.1914620000025025,681.2966957000026,None,,,,,,,,,,,,,m,001,2021_Jul_07_1709,toilet,2021.1.3,99.80796946564436,
0,180,-4,4,0.97,,,,,1,0,1,0,0,38,38,16,,,,,,,,,,,,,,,,,,,,,,,683.4881026000076,None,683.4881026000076,None,682.987773300003,None,j,1.528535199991893,683.4881026000076,None,,,,,,,,,,,,,m,001,2021_Jul_07_1709,toilet,2021.1.3,99.80796946564436,
180,0,-4,4,0.85,,,,,1,0,1,0,0,39,39,42,,,,,,,,,,,,,,,,,,,,,,,686.0298429000104,None,686.0298429000104,None,685.5294918,None,f,0.6184585000009974,686.0298429000104,None,,,,,,,,,,,,,m,001,2021_Jul_07_1709,toilet,2021.1.3,99.80796946564436,
0,0,-4,4,1.06,,,,,1,0,1,0,0,40,40,5,,,,,,,,,,,,,,,,,,,,,,,687.6609435999999,None,687.6609435999999,None,687.1605947000062,None,j,0.8274681000038981,687.6609435999999,None,,,,,,,,,,,,,m,001,2021_Jul_07_1709,toilet,2021.1.3,99.80796946564436,
0,0,4,-4,1.03,,,,,1,0,1,0,0,41,41,11,,,,,,,,,,,,,,,,,,,,,,,689.5022857000004,None,689.5022857000004,None,689.0019283000001,None,j,4.1060511999967275,689.5022857000004,None,,,,,,,,,,,,,m,001,2021_Jul_07_1709,toilet,2021.1.3,99.80796946564436,
0,0,4,-4,0.94,,,,,1,0,1,0,0,42,42,8,,,,,,,,,,,,,,,,,,,,,,,694.6256564000068,None,694.6256564000068,None,694.1253178000043,None,j,3.8305091000074754,694.6256564000068,None,,,,,,,,,,,,,m,001,2021_Jul_07_1709,toilet,2021.1.3,99.80796946564436,
0,180,-4,4,1.0,,,,,1,0,1,0,0,43,43,17,,,,,,,,,,,,,,,,,,,,,,,699.4589459999988,None,699.4589459999988,None,698.9585977999959,None,j,1.7813066999951843,699.4589459999988,None,,,,,,,,,,,,,m,001,2021_Jul_07_1709,toilet,2021.1.3,99.80796946564436,
180,0,-4,4,0.97,,,,,1,0,1,0,0,44,44,44,,,,,,,,,,,,,,,,,,,,,,,702.2508326000097,None,702.2508326000097,None,701.7504969000001,None,f,1.9174271000083536,702.2508326000097,None,,,,,,,,,,,,,m,001,2021_Jul_07_1709,toilet,2021.1.3,99.80796946564436,
0,180,4,-4,1.0,,,,,1,0,1,0,0,45,45,24,,,,,,,,,,,,,,,,,,,,,,,705.1828150000074,None,705.1828150000074,None,704.6825142000016,None,f,1.4013570000097388,705.1828150000074,None,,,,,,,,,,,,,m,001,2021_Jul_07_1709,toilet,2021.1.3,99.80796946564436,
180,0,-4,4,1.06,,,,,1,0,1,0,0,46,46,47,,,,,,,,,,,,,,,,,,,,,,,707.5844475000049,None,707.5844475000049,None,707.0841086,None,j,3.943740800008527,707.5844475000049,None,,,,,,,,,,,,,m,001,2021_Jul_07_1709,toilet,2021.1.3,99.80796946564436,
180,180,4,-4,1.06,,,,,1,0,1,0,0,47,47,40,,,,,,,,,,,,,,,,,,,,,,,712.5277983999986,None,712.5277983999986,None,712.0274961999967,None,f,0.7444798999931663,712.5277983999986,None,,,,,,,,,,,,,m,001,2021_Jul_07_1709,toilet,2021.1.3,99.80796946564436,
0,180,-4,4,1.15,,,,,1,0,1,0,0,48,48,20,,,,,,,,,,,,,,,,,,,,,,,714.2789837000018,None,714.2789837000018,None,713.7786798000016,None,j,0.8173013999912655,714.2789837000018,None,,,,,,,,,,,,,m,001,2021_Jul_07_1709,toilet,2021.1.3,99.80796946564436,
180,180,4,-4,1.0,,,,,1,0,1,0,0,49,49,38,,,,,,,,,,,,,,,,,,,,,,,716.1002206999983,None,716.1002206999983,None,715.5998775000044,None,j,1.0281142000021646,716.1002206999983,None,,,,,,,,,,,,,m,001,2021_Jul_07_1709,toilet,2021.1.3,99.80796946564436,
0,0,4,-4,1.06,,,,,1,0,1,0,0,50,50,12,,,,,,,,,,,,,,,,,,,,,,,718.1416803000029,None,718.1416803000029,None,717.6413542000082,None,f,1.914568699998199,718.1416803000029,None,,,,,,,,,,,,,m,001,2021_Jul_07_1709,toilet,2021.1.3,99.80796946564436,
0,0,-4,4,1.15,,,,,1,0,1,0,0,51,51,6,,,,,,,,,,,,,,,,,,,,,,,721.0635842000047,None,721.0635842000047,None,720.5632489999989,None,j,0.6245610999903874,721.0635842000047,None,,,,,,,,,,,,,m,001,2021_Jul_07_1709,toilet,2021.1.3,99.80796946564436,
180,180,-4,4,1.0,,,,,1,0,1,0,0,52,52,31,,,,,,,,,,,,,,,,,,,,,,,722.6946927999961,None,722.6946927999961,None,722.1943552000012,None,f,1.4256296999956248,722.6946927999961,None,,,,,,,,,,,,,m,001,2021_Jul_07_1709,toilet,2021.1.3,99.80796946564436,
180,180,4,-4,1.15,,,,,1,0,1,0,0,53,53,41,,,,,,,,,,,,,,,,,,,,,,,725.1364208000014,None,725.1364208000014,None,724.6360087000066,None,f,0.5837231000041356,725.1364208000014,None,,,,,,,,,,,,,m,001,2021_Jul_07_1709,toilet,2021.1.3,99.80796946564436,
180,0,4,-4,0.94,,,,,1,0,1,0,0,54,54,50,,,,,,,,,,,,,,,,,,,,,,,726.7274637000082,None,726.7274637000082,None,726.2271712000074,None,j,0.5766939999884926,726.7274637000082,None,,,,,,,,,,,,,m,001,2021_Jul_07_1709,toilet,2021.1.3,99.80796946564436,
180,0,4,-4,1.06,,,,,1,0,1,0,0,55,55,54,,,,,,,,,,,,,,,,,,,,,,,728.3084647000069,None,728.3084647000069,None,727.808160200002,None,f,4.227687500009779,728.3084647000069,None,,,,,,,,,,,,,m,001,2021_Jul_07_1709,toilet,2021.1.3,99.80796946564436,
0,0,-4,4,0.85,,,,,1,0,1,0,1,0,56,0,,,,,,,,,,,,,,,,,,,,,,,733.5421296999994,None,733.5421296999994,None,733.0417783000012,None,f,0.5461173000076087,733.5421296999994,None,,,,,,,,,,,,,m,001,2021_Jul_07_1709,toilet,2021.1.3,99.80796946564436,
180,0,4,-4,1.0,,,,,1,0,1,0,1,1,57,52,,,,,,,,,,,,,,,,,,,,,,,735.1031186000037,None,735.1031186000037,None,734.6027696000092,None,j,1.7691930999862961,735.1031186000037,None,,,,,,,,,,,,,m,001,2021_Jul_07_1709,toilet,2021.1.3,99.80796946564436,
0,0,-4,4,0.97,,,,,1,0,1,0,1,2,58,2,,,,,,,,,,,,,,,,,,,,,,,737.8849918000051,None,737.8849918000051,None,737.3846694000094,None,f,0.6512277999863727,737.8849918000051,None,,,,,,,,,,,,,m,001,2021_Jul_07_1709,toilet,2021.1.3,99.80796946564436,
0,180,4,-4,1.0,,,,,1,0,1,0,1,3,59,24,,,,,,,,,,,,,,,,,,,,,,,739.5461244000035,None,739.5461244000035,None,739.0457823000033,None,f,0.9581020000041462,739.5461244000035,None,,,,,,,,,,,,,m,001,2021_Jul_07_1709,toilet,2021.1.3,99.80796946564436,
180,180,-4,4,1.06,,,,,1,0,1,0,1,4,60,33,,,,,,,,,,,,,,,,,,,,,,,741.5174932000082,None,741.5174932000082,None,741.017217200002,None,j,0.7627436999900965,741.5174932000082,None,,,,,,,,,,,,,m,001,2021_Jul_07_1709,toilet,2021.1.3,99.80796946564436,
0,180,-4,4,1.06,,,,,1,0,1,0,1,5,61,19,,,,,,,,,,,,,,,,,,,,,,,743.2886770000041,None,743.2886770000041,None,742.7883175000024,None,j,0.6395415000006324,743.2886770000041,None,,,,,,,,,,,,,m,001,2021_Jul_07_1709,toilet,2021.1.3,99.80796946564436,
180,180,4,-4,1.0,,,,,1,0,1,0,1,6,62,38,,,,,,,,,,,,,,,,,,,,,,,744.9397806000052,None,744.9397806000052,None,744.4394403000042,None,f,1.0203890999982832,744.9397806000052,None,,,,,,,,,,,,,m,001,2021_Jul_07_1709,toilet,2021.1.3,99.80796946564436,
0,180,-4,4,1.15,,,,,1,0,1,0,1,7,63,20,,,,,,,,,,,,,,,,,,,,,,,746.9612272000086,None,746.9612272000086,None,746.4708159000002,None,j,0.695138399998541,746.9612272000086,None,,,,,,,,,,,,,m,001,2021_Jul_07_1709,toilet,2021.1.3,99.80796946564436,
180,0,-4,4,0.85,,,,,1,0,1,0,1,8,64,42,,,,,,,,,,,,,,,,,,,,,,,748.6723464000097,None,748.6723464000097,None,748.1719704999996,None,f,0.743857300010859,748.6723464000097,None,,,,,,,,,,,,,m,001,2021_Jul_07_1709,toilet,2021.1.3,99.80796946564436,
180,0,4,-4,1.06,,,,,1,0,1,0,1,9,65,54,,,,,,,,,,,,,,,,,,,,,,,750.4235001000052,None,750.4235001000052,None,749.9231585000089,None,f,0.8166592000052333,750.4235001000052,None,,,,,,,,,,,,,m,001,2021_Jul_07_1709,toilet,2021.1.3,99.80796946564436,
0,180,4,-4,0.97,,,,,1,0,1,0,1,10,66,23,,,,,,,,,,,,,,,,,,,,,,,752.2447339000064,None,752.2447339000064,None,751.744394399997,None,j,1.3477038000128232,752.2447339000064,None,,,,,,,,,,,,,m,001,2021_Jul_07_1709,toilet,2021.1.3,99.80796946564436,
0,0,4,-4,0.85,,,,,1,0,1,0,1,11,67,7,,,,,,,,,,,,,,,,,,,,,,,754.6063362999994,None,754.6063362999994,None,754.1059985000029,None,j,0.6178957999945851,754.6063362999994,None,,,,,,,,,,,,,m,001,2021_Jul_07_1709,toilet,2021.1.3,99.80796946564436,
0,0,4,-4,0.97,,,,,1,0,1,0,1,12,68,9,,,,,,,,,,,,,,,,,,,,,,,756.2274767000054,None,756.2274767000054,None,755.727163100004,None,j,0.9008681999985129,756.2274767000054,None,,,,,,,,,,,,,m,001,2021_Jul_07_1709,toilet,2021.1.3,99.80796946564436,
0,180,-4,4,0.94,,,,,1,0,1,0,1,13,69,15,,,,,,,,,,,,,,,,,,,,,,,758.1287223999971,None,758.1287223999971,None,757.628384399999,None,f,1.0315142000035848,758.1287223999971,None,,,,,,,,,,,,,m,001,2021_Jul_07_1709,toilet,2021.1.3,99.80796946564436,
180,180,-4,4,1.15,,,,,1,0,1,0,1,14,70,34,,,,,,,,,,,,,,,,,,,,,,,760.1701067000104,None,760.1701067000104,None,759.6697697000054,None,j,0.5900300000066636,760.1701067000104,None,,,,,,,,,,,,,m,001,2021_Jul_07_1709,toilet,2021.1.3,99.80796946564436,
180,0,4,-4,0.85,,,,,1,0,1,0,1,15,71,49,,,,,,,,,,,,,,,,,,,,,,,761.7612586000032,None,761.7612586000032,None,761.2608346000052,None,j,0.5831206000002567,761.7612586000032,None,,,,,,,,,,,,,m,001,2021_Jul_07_1709,toilet,2021.1.3,99.80796946564436,
180,180,4,-4,1.03,,,,,1,0,1,0,1,16,72,39,,,,,,,,,,,,,,,,,,,,,,,763.3622903000069,None,763.3622903000069,None,762.8620115000085,None,f,1.7019378999975743,763.3622903000069,None,,,,,,,,,,,,,m,001,2021_Jul_07_1709,toilet,2021.1.3,99.80796946564436,
180,0,4,-4,1.03,,,,,1,0,1,0,1,17,73,53,,,,,,,,,,,,,,,,,,,,,,,766.064108400009,None,766.064108400009,None,765.5637683000095,None,f,5.704198500010534,766.064108400009,None,,,,,,,,,,,,,m,001,2021_Jul_07_1709,toilet,2021.1.3,99.80796946564436,
0,180,4,-4,0.94,,,,,1,0,1,0,1,18,74,22,,,,,,,,,,,,,,,,,,,,,,,772.7686526000034,None,772.7686526000034,None,772.2683133999963,None,j,0.9194900000002235,772.7686526000034,None,,,,,,,,,,,,,m,001,2021_Jul_07_1709,toilet,2021.1.3,99.80796946564436,
180,0,-4,4,1.15,,,,,1,0,1,0,1,19,75,48,,,,,,,,,,,,,,,,,,,,,,,774.6899555999989,None,774.6899555999989,None,774.1896462000004,None,j,0.742268799993326,774.6899555999989,None,,,,,,,,,,,,,m,001,2021_Jul_07_1709,toilet,2021.1.3,99.80796946564436,
180,0,-4,4,0.94,,,,,1,0,1,0,1,20,76,43,,,,,,,,,,,,,,,,,,,,,,,776.4412241999962,None,776.4412241999962,None,775.9408038999973,None,f,1.215142700006254,776.4412241999962,None,,,,,,,,,,,,,m,001,2021_Jul_07_1709,toilet,2021.1.3,99.80796946564436,
180,0,-4,4,0.97,,,,,1,0,1,0,1,21,77,44,,,,,,,,,,,,,,,,,,,,,,,778.6726610000042,None,778.6726610000042,None,778.1723957000067,None,f,0.9035326999874087,778.6726610000042,None,,,,,,,,,,,,,m,001,2021_Jul_07_1709,toilet,2021.1.3,99.80796946564436,
0,0,-4,4,1.15,,,,,1,0,1,0,1,22,78,6,,,,,,,,,,,,,,,,,,,,,,,780.5839517999993,None,780.5839517999993,None,780.0836159000028,None,j,0.6401939999923343,780.5839517999993,None,,,,,,,,,,,,,m,001,2021_Jul_07_1709,toilet,2021.1.3,99.80796946564436,
0,0,4,-4,0.94,,,,,1,0,1,0,1,23,79,8,,,,,,,,,,,,,,,,,,,,,,,782.2250685000035,None,782.2250685000035,None,781.7247466999979,None,f,1.2232471000024816,782.2250685000035,None,,,,,,,,,,,,,m,001,2021_Jul_07_1709,toilet,2021.1.3,99.80796946564436,
0,0,4,-4,1.03,,,,,1,0,1,0,1,24,80,11,,,,,,,,,,,,,,,,,,,,,,,784.4666734000057,None,784.4666734000057,None,783.9662647000077,None,j,2.3094912999949884,784.4666734000057,None,,,,,,,,,,,,,m,001,2021_Jul_07_1709,toilet,2021.1.3,99.80796946564436,
180,0,4,-4,0.94,,,,,1,0,1,0,1,25,81,50,,,,,,,,,,,,,,,,,,,,,,,787.77883570001,None,787.77883570001,None,787.2784906000015,None,j,0.9492893999995431,787.77883570001,None,,,,,,,,,,,,,m,001,2021_Jul_07_1709,toilet,2021.1.3,99.80796946564436,
0,0,-4,4,1.03,,,,,1,0,1,0,1,26,82,4,,,,,,,,,,,,,,,,,,,,,,,789.7301542000059,None,789.7301542000059,None,789.2298641000089,None,j,0.6781773000111571,789.7301542000059,None,,,,,,,,,,,,,m,001,2021_Jul_07_1709,toilet,2021.1.3,99.80796946564436,
180,0,-4,4,1.0,,,,,1,0,1,0,1,27,83,45,,,,,,,,,,,,,,,,,,,,,,,791.4213038000016,None,791.4213038000016,None,790.9210692000051,None,f,2.0588254000031156,791.4213038000016,None,,,,,,,,,,,,,m,001,2021_Jul_07_1709,toilet,2021.1.3,99.80796946564436,
180,0,4,-4,1.15,,,,,1,0,1,0,1,28,84,55,,,,,,,,,,,,,,,,,,,,,,,794.4833788999968,None,794.4833788999968,None,793.983038300008,None,f,0.8528399000060745,794.4833788999968,None,,,,,,,,,,,,,m,001,2021_Jul_07_1709,toilet,2021.1.3,99.80796946564436,
180,0,-4,4,1.03,,,,,1,0,1,0,1,29,85,46,,,,,,,,,,,,,,,,,,,,,,,796.344640700001,None,796.344640700001,None,795.8443000999978,None,j,1.7594852999900468,796.344640700001,None,,,,,,,,,,,,,m,001,2021_Jul_07_1709,toilet,2021.1.3,99.80796946564436,
0,180,-4,4,0.85,,,,,1,0,1,0,1,30,86,14,,,,,,,,,,,,,,,,,,,,,,,799.1065900000103,None,799.1065900000103,None,798.6061744000035,None,f,0.7417527999932645,799.1065900000103,None,,,,,,,,,,,,,m,001,2021_Jul_07_1709,toilet,2021.1.3,99.80796946564436,
0,0,-4,4,1.06,,,,,1,0,1,0,1,31,87,5,,,,,,,,,,,,,,,,,,,,,,,800.8577028,None,800.8577028,None,800.3573993000027,None,j,0.6864304000046104,800.8577028,None,,,,,,,,,,,,,m,001,2021_Jul_07_1709,toilet,2021.1.3,99.80796946564436,
0,0,-4,4,0.94,,,,,1,0,1,0,1,32,88,1,,,,,,,,,,,,,,,,,,,,,,,802.5488551000017,None,802.5488551000017,None,802.0485104999971,None,f,0.6433766999980435,802.5488551000017,None,,,,,,,,,,,,,m,001,2021_Jul_07_1709,toilet,2021.1.3,99.80796946564436,
0,180,4,-4,1.15,,,,,1,0,1,0,1,33,89,27,,,,,,,,,,,,,,,,,,,,,,,804.2099775000097,None,804.2099775000097,None,803.7096295000083,None,f,0.5981614000047557,804.2099775000097,None,,,,,,,,,,,,,m,001,2021_Jul_07_1709,toilet,2021.1.3,99.80796946564436,
180,0,4,-4,0.97,,,,,1,0,1,0,1,34,90,51,,,,,,,,,,,,,,,,,,,,,,,805.8111353999993,None,805.8111353999993,None,805.3107275000075,None,j,1.1410894000000553,805.8111353999993,None,,,,,,,,,,,,,m,001,2021_Jul_07_1709,toilet,2021.1.3,99.80796946564436,
180,180,-4,4,0.94,,,,,1,0,1,0,1,35,91,29,,,,,,,,,,,,,,,,,,,,,,,807.9625588000054,None,807.9625588000054,None,807.4621795999992,None,f,0.8936556999979075,807.9625588000054,None,,,,,,,,,,,,,m,001,2021_Jul_07_1709,toilet,2021.1.3,99.80796946564436,
0,0,-4,4,1.0,,,,,1,0,1,0,1,36,92,3,,,,,,,,,,,,,,,,,,,,,,,809.8638166000019,None,809.8638166000019,None,809.3634699999966,None,j,0.9603392999997595,809.8638166000019,None,,,,,,,,,,,,,m,001,2021_Jul_07_1709,toilet,2021.1.3,99.80796946564436,
0,0,4,-4,1.15,,,,,1,0,1,0,1,37,93,13,,,,,,,,,,,,,,,,,,,,,,,811.8251361000002,None,811.8251361000002,None,811.3247934999963,None,f,6.311502199998358,811.8251361000002,None,,,,,,,,,,,,,m,001,2021_Jul_07_1709,toilet,2021.1.3,99.80796946564436,
0,180,4,-4,1.06,,,,,1,0,1,0,1,38,94,26,,,,,,,,,,,,,,,,,,,,,,,819.1601247000071,None,819.1601247000071,None,818.659773899999,None,f,3.4881594000034966,819.1601247000071,None,,,,,,,,,,,,,m,001,2021_Jul_07_1709,toilet,2021.1.3,99.80796946564436,
0,0,4,-4,1.0,,,,,1,0,1,0,1,39,95,10,,,,,,,,,,,,,,,,,,,,,,,823.6631695999968,None,823.6631695999968,None,823.1628269000066,None,j,1.6569480000034673,823.6631695999968,None,,,,,,,,,,,,,m,001,2021_Jul_07_1709,toilet,2021.1.3,99.80796946564436,
180,0,-4,4,1.06,,,,,1,0,1,0,1,40,96,47,,,,,,,,,,,,,,,,,,,,,,,826.3249728000083,None,826.3249728000083,None,825.8246312999981,None,j,0.7071983000059845,826.3249728000083,None,,,,,,,,,,,,,m,001,2021_Jul_07_1709,toilet,2021.1.3,99.80796946564436,
0,180,-4,4,1.0,,,,,1,0,1,0,1,41,97,17,,,,,,,,,,,,,,,,,,,,,,,828.036207600002,None,828.036207600002,None,827.5357942999981,None,j,0.7560401999944588,828.036207600002,None,,,,,,,,,,,,,m,001,2021_Jul_07_1709,toilet,2021.1.3,99.80796946564436,
180,180,4,-4,0.97,,,,,1,0,1,0,1,42,98,37,,,,,,,,,,,,,,,,,,,,,,,829.8073665999982,None,829.8073665999982,None,829.3069998999999,None,j,0.6327514000004157,829.8073665999982,None,,,,,,,,,,,,,m,001,2021_Jul_07_1709,toilet,2021.1.3,99.80796946564436,
0,180,-4,4,0.97,,,,,1,0,1,0,1,43,99,16,,,,,,,,,,,,,,,,,,,,,,,831.4484347999969,None,831.4484347999969,None,830.9481126000028,None,j,0.5596831000002567,831.4484347999969,None,,,,,,,,,,,,,m,001,2021_Jul_07_1709,toilet,2021.1.3,99.80796946564436,
180,180,-4,4,0.97,,,,,1,0,1,0,1,44,100,30,,,,,,,,,,,,,,,,,,,,,,,833.0095164000086,None,833.0095164000086,None,832.5091656000004,None,f,0.9667413999995915,833.0095164000086,None,,,,,,,,,,,,,m,001,2021_Jul_07_1709,toilet,2021.1.3,99.80796946564436,
180,180,4,-4,1.06,,,,,1,0,1,0,1,45,101,40,,,,,,,,,,,,,,,,,,,,,,,835.0008608000062,None,835.0008608000062,None,834.5005225000059,None,f,0.9113554000068689,835.0008608000062,None,,,,,,,,,,,,,m,001,2021_Jul_07_1709,toilet,2021.1.3,99.80796946564436,
180,180,4,-4,0.94,,,,,1,0,1,0,1,46,102,36,,,,,,,,,,,,,,,,,,,,,,,836.9221943000011,None,836.9221943000011,None,836.4218199000024,None,j,0.6699074999924051,836.9221943000011,None,,,,,,,,,,,,,m,001,2021_Jul_07_1709,toilet,2021.1.3,99.80796946564436,
0,0,4,-4,1.06,,,,,1,0,1,0,1,47,103,12,,,,,,,,,,,,,,,,,,,,,,,838.5932965000102,None,838.5932965000102,None,838.0929498000041,None,f,0.6628997000079835,838.5932965000102,None,,,,,,,,,,,,,m,001,2021_Jul_07_1709,toilet,2021.1.3,99.80796946564436,
0,180,-4,4,1.03,,,,,1,0,1,0,1,48,104,18,,,,,,,,,,,,,,,,,,,,,,,840.2644260000088,None,840.2644260000088,None,839.7640934000083,None,j,1.0879583000059938,840.2644260000088,None,,,,,,,,,,,,,m,001,2021_Jul_07_1709,toilet,2021.1.3,99.80796946564436,
180,180,-4,4,1.0,,,,,1,0,1,0,1,49,105,31,,,,,,,,,,,,,,,,,,,,,,,842.3658887000056,None,842.3658887000056,None,841.8655214000028,None,j,0.6503318000031868,842.3658887000056,None,,,,,,,,,,,,,m,001,2021_Jul_07_1709,toilet,2021.1.3,99.80796946564436,
180,180,-4,4,1.03,,,,,1,0,1,0,1,50,106,32,,,,,,,,,,,,,,,,,,,,,,,844.027070199998,None,844.027070199998,None,843.526638299998,None,j,1.3090198999998393,844.027070199998,None,,,,,,,,,,,,,m,001,2021_Jul_07_1709,toilet,2021.1.3,99.80796946564436,
180,180,-4,4,0.85,,,,,1,0,1,0,1,51,107,28,,,,,,,,,,,,,,,,,,,,,,,846.3385494000104,None,846.3385494000104,None,845.8382027000043,None,f,0.6295569000067189,846.3385494000104,None,,,,,,,,,,,,,m,001,2021_Jul_07_1709,toilet,2021.1.3,99.80796946564436,
0,180,4,-4,1.03,,,,,1,0,1,0,1,52,108,25,,,,,,,,,,,,,,,,,,,,,,,847.9696521000005,None,847.9696521000005,None,847.469313499998,None,f,1.3825471000018297,847.9696521000005,None,,,,,,,,,,,,,m,001,2021_Jul_07_1709,toilet,2021.1.3,99.80796946564436,
0,180,4,-4,0.85,,,,,1,0,1,0,1,53,109,21,,,,,,,,,,,,,,,,,,,,,,,850.3712865999987,None,850.3712865999987,None,849.8709434000048,None,j,0.6928688000043621,850.3712865999987,None,,,,,,,,,,,,,m,001,2021_Jul_07_1709,toilet,2021.1.3,99.80796946564436,
180,180,4,-4,1.15,,,,,1,0,1,0,1,54,110,41,,,,,,,,,,,,,,,,,,,,,,,852.0824673000025,None,852.0824673000025,None,851.5821998000029,None,f,0.6297552000032738,852.0824673000025,None,,,,,,,,,,,,,m,001,2021_Jul_07_1709,toilet,2021.1.3,99.80796946564436,
180,180,4,-4,0.85,,,,,1,0,1,0,1,55,111,35,,,,,,,,,,,,,,,,,,,,,,,853.7135503000027,None,853.7135503000027,None,853.2132090000086,None,j,0.5506756999966456,853.7135503000027,None,,,,,,,,,,,,,m,001,2021_Jul_07_1709,toilet,2021.1.3,99.80796946564436,
,,,,,,,,,1,0,1,0,,,,,,,,,,,,,,,,,,,,,,,,,,,,,,,,,,,,,854.2739314000064,None,space,12.918196600003284,854.2739314000064,None,,,,,,,m,001,2021_Jul_07_1709,toilet,2021.1.3,99.80796946564436,
0,0,4,-4,0.94,,,,,2,0,2,0,0,0,0,8,,,,,,,,,,,,,,,,,867.2028354000067,None,space,0.8693262000015238,867.2028354000067,None,869.0839743999968,None,869.0839743999968,None,868.583635700008,None,j,1.1484209000045666,869.0839743999968,None,,,,,,,,,,,,,m,001,2021_Jul_07_1709,toilet,2021.1.3,99.80796946564436,
0,0,-4,4,0.94,,,,,2,0,2,0,0,1,1,1,,,,,,,,,,,,,,,,,,,,,,,871.2454412000079,None,871.2454412000079,None,870.745099599997,None,f,0.8749898000096437,871.2454412000079,None,,,,,,,,,,,,,m,001,2021_Jul_07_1709,toilet,2021.1.3,99.80796946564436,
180,180,4,-4,1.15,,,,,2,0,2,0,0,2,2,41,,,,,,,,,,,,,,,,,,,,,,,873.1368138999969,None,873.1368138999969,None,872.6363837000099,None,f,0.6473799000086728,873.1368138999969,None,,,,,,,,,,,,,m,001,2021_Jul_07_1709,toilet,2021.1.3,99.80796946564436,
180,180,-4,4,0.94,,,,,2,0,2,0,0,3,3,29,,,,,,,,,,,,,,,,,,,,,,,874.797853600001,None,874.797853600001,None,874.2975242999964,None,f,0.8422500000015134,874.797853600001,None,,,,,,,,,,,,,m,001,2021_Jul_07_1709,toilet,2021.1.3,99.80796946564436,
0,0,4,-4,1.15,,,,,2,0,2,0,0,4,4,13,,,,,,,,,,,,,,,,,,,,,,,876.6491010000027,None,876.6491010000027,None,876.1487683000014,None,f,0.6552778999903239,876.6491010000027,None,,,,,,,,,,,,,m,001,2021_Jul_07_1709,toilet,2021.1.3,99.80796946564436,
180,0,4,-4,0.94,,,,,2,0,2,0,0,5,5,50,,,,,,,,,,,,,,,,,,,,,,,878.3202374000102,None,878.3202374000102,None,877.8198975999985,None,j,0.6318521999928635,878.3202374000102,None,,,,,,,,,,,,,m,001,2021_Jul_07_1709,toilet,2021.1.3,99.80796946564436,
180,180,4,-4,0.85,,,,,2,0,2,0,0,6,6,35,,,,,,,,,,,,,,,,,,,,,,,879.9514353999984,None,879.9514353999984,None,879.451009299999,None,j,0.6807535999978427,879.9514353999984,None,,,,,,,,,,,,,m,001,2021_Jul_07_1709,toilet,2021.1.3,99.80796946564436,
180,180,4,-4,0.94,,,,,2,0,2,0,0,7,7,36,,,,,,,,,,,,,,,,,,,,,,,881.6424952000089,None,881.6424952000089,None,881.142239599998,None,j,0.5736884999932954,881.6424952000089,None,,,,,,,,,,,,,m,001,2021_Jul_07_1709,toilet,2021.1.3,99.80796946564436,
0,180,-4,4,1.06,,,,,2,0,2,0,0,8,8,19,,,,,,,,,,,,,,,,,,,,,,,883.2235651000083,None,883.2235651000083,None,882.7232252000103,None,j,0.4805439000047045,883.2235651000083,None,,,,,,,,,,,,,m,001,2021_Jul_07_1709,toilet,2021.1.3,99.80796946564436,
180,0,-4,4,1.15,,,,,2,0,2,0,0,9,9,48,,,,,,,,,,,,,,,,,,,,,,,884.704565100008,None,884.704565100008,None,884.2042294999992,None,j,0.5357328000100097,884.704565100008,None,,,,,,,,,,,,,m,001,2021_Jul_07_1709,toilet,2021.1.3,99.80796946564436,
180,180,-4,4,0.85,,,,,2,0,2,0,0,10,10,28,,,,,,,,,,,,,,,,,,,,,,,886.2556181999971,None,886.2556181999971,None,885.7552794000076,None,f,0.5524620999931358,886.2556181999971,None,,,,,,,,,,,,,m,001,2021_Jul_07_1709,toilet,2021.1.3,99.80796946564436,
0,0,-4,4,1.03,,,,,2,0,2,0,0,11,11,4,,,,,,,,,,,,,,,,,,,,,,,887.8167725000094,None,887.8167725000094,None,887.3164164000045,None,j,0.575481599997147,887.8167725000094,None,,,,,,,,,,,,,m,001,2021_Jul_07_1709,toilet,2021.1.3,99.80796946564436,
0,180,4,-4,0.94,,,,,2,0,2,0,0,12,12,22,,,,,,,,,,,,,,,,,,,,,,,889.4077603000042,None,889.4077603000042,None,888.9074486000027,None,j,1.2244183999864617,889.4077603000042,None,,,,,,,,,,,,,m,001,2021_Jul_07_1709,toilet,2021.1.3,99.80796946564436,
0,180,4,-4,1.15,,,,,2,0,2,0,0,13,13,27,,,,,,,,,,,,,,,,,,,,,,,891.6392689000058,None,891.6392689000058,None,891.1389308000071,None,f,0.5608643999876222,891.6392689000058,None,,,,,,,,,,,,,m,001,2021_Jul_07_1709,toilet,2021.1.3,99.80796946564436,
0,0,4,-4,0.97,,,,,2,0,2,0,0,14,14,9,,,,,,,,,,,,,,,,,,,,,,,893.2103399000043,None,893.2103399000043,None,892.7100034000032,None,j,0.5418244999891613,893.2103399000043,None,,,,,,,,,,,,,m,001,2021_Jul_07_1709,toilet,2021.1.3,99.80796946564436,
180,0,4,-4,0.97,,,,,2,0,2,0,0,15,15,51,,,,,,,,,,,,,,,,,,,,,,,894.771490900006,None,894.771490900006,None,894.2710513000056,None,j,0.9166698999906657,894.771490900006,None,,,,,,,,,,,,,m,001,2021_Jul_07_1709,toilet,2021.1.3,99.80796946564436,
0,0,4,-4,1.03,,,,,2,0,2,0,0,16,16,11,,,,,,,,,,,,,,,,,,,,,,,896.7027032000042,None,896.7027032000042,None,896.2024487000017,None,f,0.8093892999895616,896.7027032000042,None,,,,,,,,,,,,,m,001,2021_Jul_07_1709,toilet,2021.1.3,99.80796946564436,
180,180,4,-4,1.06,,,,,2,0,2,0,0,17,17,40,,,,,,,,,,,,,,,,,,,,,,,898.513930400004,None,898.513930400004,None,898.0135970999982,None,f,0.6142252999998163,898.513930400004,None,,,,,,,,,,,,,m,001,2021_Jul_07_1709,toilet,2021.1.3,99.80796946564436,
0,180,4,-4,0.97,,,,,2,0,2,0,0,18,18,23,,,,,,,,,,,,,,,,,,,,,,,900.1350323000079,None,900.1350323000079,None,899.6346900000062,None,j,1.185162699999637,900.1350323000079,None,,,,,,,,,,,,,m,001,2021_Jul_07_1709,toilet,2021.1.3,99.80796946564436,
180,0,4,-4,1.06,,,,,2,0,2,0,0,19,19,54,,,,,,,,,,,,,,,,,,,,,,,902.326524300006,None,902.326524300006,None,901.8262656000006,None,f,2.3055861000029836,902.326524300006,None,,,,,,,,,,,,,m,001,2021_Jul_07_1709,toilet,2021.1.3,99.80796946564436,
0,180,-4,4,1.0,,,,,2,0,2,0,0,20,20,17,,,,,,,,,,,,,,,,,,,,,,,905.6387685000082,None,905.6387685000082,None,905.138437200003,None,j,1.4255704000097467,905.6387685000082,None,,,,,,,,,,,,,m,001,2021_Jul_07_1709,toilet,2021.1.3,99.80796946564436,
180,180,4,-4,1.0,,,,,2,0,2,0,0,21,21,38,,,,,,,,,,,,,,,,,,,,,,,908.0804116000072,None,908.0804116000072,None,907.5800757999968,None,j,1.0159109000087483,908.0804116000072,None,,,,,,,,,,,,,m,001,2021_Jul_07_1709,toilet,2021.1.3,99.80796946564436,
180,180,-4,4,1.06,,,,,2,0,2,0,0,22,22,33,,,,,,,,,,,,,,,,,,,,,,,910.1118741999962,None,910.1118741999962,None,909.6115308000008,None,j,1.0482999999949243,910.1118741999962,None,,,,,,,,,,,,,m,001,2021_Jul_07_1709,toilet,2021.1.3,99.80796946564436,
180,180,4,-4,0.97,,,,,2,0,2,0,0,23,23,37,,,,,,,,,,,,,,,,,,,,,,,912.173197199998,None,912.173197199998,None,911.6728548000101,None,j,0.7948774999968009,912.173197199998,None,,,,,,,,,,,,,m,001,2021_Jul_07_1709,toilet,2021.1.3,99.80796946564436,
180,0,4,-4,0.85,,,,,2,0,2,0,0,24,24,49,,,,,,,,,,,,,,,,,,,,,,,913.9744161999988,None,913.9744161999988,None,913.4740794000099,None,j,1.425809799999115,913.9744161999988,None,,,,,,,,,,,,,m,001,2021_Jul_07_1709,toilet,2021.1.3,99.80796946564436,
180,180,-4,4,1.03,,,,,2,0,2,0,0,25,25,32,,,,,,,,,,,,,,,,,,,,,,,916.416071700005,None,916.416071700005,None,915.9157336000062,None,j,1.6080948999879183,916.416071700005,None,,,,,,,,,,,,,m,001,2021_Jul_07_1709,toilet,2021.1.3,99.80796946564436,
180,0,-4,4,1.0,,,,,2,0,2,0,0,26,26,45,,,,,,,,,,,,,,,,,,,,,,,919.0378507999994,None,919.0378507999994,None,918.5375103999977,None,f,2.5064072999957716,919.0378507999994,None,,,,,,,,,,,,,m,001,2021_Jul_07_1709,toilet,2021.1.3,99.80796946564436,
0,180,-4,4,0.85,,,,,2,0,2,0,0,27,27,14,,,,,,,,,,,,,,,,,,,,,,,922.5602404000092,None,922.5602404000092,None,922.0699388000066,None,f,0.7920144000090659,922.5602404000092,None,,,,,,,,,,,,,m,001,2021_Jul_07_1709,toilet,2021.1.3,99.80796946564436,
180,0,-4,4,0.97,,,,,2,0,2,0,0,28,28,44,,,,,,,,,,,,,,,,,,,,,,,924.3715386999975,None,924.3715386999975,None,923.8711025000084,None,f,1.2046812000044156,924.3715386999975,None,,,,,,,,,,,,,m,001,2021_Jul_07_1709,toilet,2021.1.3,99.80796946564436,
180,0,4,-4,1.15,,,,,2,0,2,0,0,29,29,55,,,,,,,,,,,,,,,,,,,,,,,926.593005600007,None,926.593005600007,None,926.0926346000051,None,f,0.8390752999985125,926.593005600007,None,,,,,,,,,,,,,m,001,2021_Jul_07_1709,toilet,2021.1.3,99.80796946564436,
0,0,4,-4,0.85,,,,,2,0,2,0,0,30,30,7,,,,,,,,,,,,,,,,,,,,,,,928.4342203999986,None,928.4342203999986,None,927.9338802999991,None,j,0.661945800005924,928.4342203999986,None,,,,,,,,,,,,,m,001,2021_Jul_07_1709,toilet,2021.1.3,99.80796946564436,
0,0,4,-4,1.0,,,,,2,0,2,0,0,31,31,10,,,,,,,,,,,,,,,,,,,,,,,930.115372100001,None,930.115372100001,None,929.6150246000034,None,j,1.3968783000018448,930.115372100001,None,,,,,,,,,,,,,m,001,2021_Jul_07_1709,toilet,2021.1.3,99.80796946564436,
180,0,-4,4,1.03,,,,,2,0,2,0,0,32,32,46,,,,,,,,,,,,,,,,,,,,,,,932.5270148999989,None,932.5270148999989,None,932.02674690001,None,f,1.3531985000008717,932.5270148999989,None,,,,,,,,,,,,,m,001,2021_Jul_07_1709,toilet,2021.1.3,99.80796946564436,
0,180,4,-4,1.03,,,,,2,0,2,0,0,33,33,25,,,,,,,,,,,,,,,,,,,,,,,934.8886037000048,None,934.8886037000048,None,934.3882612000016,None,f,0.9914385000010952,934.8886037000048,None,,,,,,,,,,,,,m,001,2021_Jul_07_1709,toilet,2021.1.3,99.80796946564436,
0,0,-4,4,1.06,,,,,2,0,2,0,0,34,34,5,,,,,,,,,,,,,,,,,,,,,,,936.879960899998,None,936.879960899998,None,936.3796120000043,None,j,0.6802408999938052,936.879960899998,None,,,,,,,,,,,,,m,001,2021_Jul_07_1709,toilet,2021.1.3,99.80796946564436,
0,180,4,-4,1.06,,,,,2,0,2,0,0,35,35,26,,,,,,,,,,,,,,,,,,,,,,,938.5711212000024,None,938.5711212000024,None,938.070756400004,None,f,1.116953699995065,938.5711212000024,None,,,,,,,,,,,,,m,001,2021_Jul_07_1709,toilet,2021.1.3,99.80796946564436,
180,180,4,-4,1.03,,,,,2,0,2,0,0,36,36,39,,,,,,,,,,,,,,,,,,,,,,,940.6925467999972,None,940.6925467999972,None,940.1922803000052,None,f,0.8835342999955174,940.6925467999972,None,,,,,,,,,,,,,m,001,2021_Jul_07_1709,toilet,2021.1.3,99.80796946564436,
0,180,4,-4,1.0,,,,,2,0,2,0,0,37,37,24,,,,,,,,,,,,,,,,,,,,,,,942.5838194000098,None,942.5838194000098,None,942.0834908999968,None,f,1.2162822999962373,942.5838194000098,None,,,,,,,,,,,,,m,001,2021_Jul_07_1709,toilet,2021.1.3,99.80796946564436,
180,0,4,-4,1.03,,,,,2,0,2,0,0,38,38,53,,,,,,,,,,,,,,,,,,,,,,,944.815336700005,None,944.815336700005,None,944.3149914000096,None,f,1.0167377999896416,944.815336700005,None,,,,,,,,,,,,,m,001,2021_Jul_07_1709,toilet,2021.1.3,99.80796946564436,
0,180,-4,4,1.15,,,,,2,0,2,0,0,39,39,20,,,,,,,,,,,,,,,,,,,,,,,946.8367786000017,None,946.8367786000017,None,946.3364664999972,None,j,0.6114578999986406,946.8367786000017,None,,,,,,,,,,,,,m,001,2021_Jul_07_1709,toilet,2021.1.3,99.80796946564436,
0,180,-4,4,1.03,,,,,2,0,2,0,0,40,40,18,,,,,,,,,,,,,,,,,,,,,,,948.457802799996,None,948.457802799996,None,947.9574781999981,None,f,2.1103549000108615,948.457802799996,None,,,,,,,,,,,,,m,001,2021_Jul_07_1709,toilet,2021.1.3,99.80796946564436,
180,180,-4,4,1.0,,,,,2,0,2,0,0,41,41,31,,,,,,,,,,,,,,,,,,,,,,,951.5799209999968,None,951.5799209999968,None,951.0795810999989,None,j,0.9561481999990065,951.5799209999968,None,,,,,,,,,,,,,m,001,2021_Jul_07_1709,toilet,2021.1.3,99.80796946564436,
0,0,-4,4,0.85,,,,,2,0,2,0,0,42,42,0,,,,,,,,,,,,,,,,,,,,,,,953.5413496999972,None,953.5413496999972,None,953.0409149000043,None,f,0.7229589000053238,953.5413496999972,None,,,,,,,,,,,,,m,001,2021_Jul_07_1709,toilet,2021.1.3,99.80796946564436,
0,0,-4,4,1.0,,,,,2,0,2,0,0,43,43,3,,,,,,,,,,,,,,,,,,,,,,,955.2824515000102,None,955.2824515000102,None,954.7821124000038,None,f,1.7816181999951368,955.2824515000102,None,,,,,,,,,,,,,m,001,2021_Jul_07_1709,toilet,2021.1.3,99.80796946564436,
180,0,-4,4,0.85,,,,,2,0,2,0,0,44,44,42,,,,,,,,,,,,,,,,,,,,,,,958.0643218000041,None,958.0643218000041,None,957.5639819000062,None,f,0.7439670000021579,958.0643218000041,None,,,,,,,,,,,,,m,001,2021_Jul_07_1709,toilet,2021.1.3,99.80796946564436,
0,0,-4,4,1.15,,,,,2,0,2,0,0,45,45,6,,,,,,,,,,,,,,,,,,,,,,,959.8355236000061,None,959.8355236000061,None,959.3351800000091,None,j,0.6526467999938177,959.8355236000061,None,,,,,,,,,,,,,m,001,2021_Jul_07_1709,toilet,2021.1.3,99.80796946564436,
0,180,-4,4,0.97,,,,,2,0,2,0,0,46,46,16,,,,,,,,,,,,,,,,,,,,,,,961.4967325000034,None,961.4967325000034,None,960.9963977000007,None,j,0.9755267000000458,961.4967325000034,None,,,,,,,,,,,,,m,001,2021_Jul_07_1709,toilet,2021.1.3,99.80796946564436,
180,0,4,-4,1.0,,,,,2,0,2,0,0,47,47,52,,,,,,,,,,,,,,,,,,,,,,,963.4880265000102,None,963.4880265000102,None,962.9876604000019,None,f,1.3041387999983272,963.4880265000102,None,,,,,,,,,,,,,m,001,2021_Jul_07_1709,toilet,2021.1.3,99.80796946564436,
0,0,-4,4,0.97,,,,,2,0,2,0,0,48,48,2,,,,,,,,,,,,,,,,,,,,,,,965.7995672999969,None,965.7995672999969,None,965.2992295000004,None,f,0.7847503999946639,965.7995672999969,None,,,,,,,,,,,,,m,001,2021_Jul_07_1709,toilet,2021.1.3,99.80796946564436,
0,180,-4,4,0.94,,,,,2,0,2,0,0,49,49,15,,,,,,,,,,,,,,,,,,,,,,,967.6007845999993,None,967.6007845999993,None,967.1004467000021,None,f,1.9273796000052243,967.6007845999993,None,,,,,,,,,,,,,m,001,2021_Jul_07_1709,toilet,2021.1.3,99.80796946564436,
0,180,4,-4,0.85,,,,,2,0,2,0,0,50,50,21,,,,,,,,,,,,,,,,,,,,,,,970.5427861000062,None,970.5427861000062,None,970.0424800000037,None,j,0.665420900011668,970.5427861000062,None,,,,,,,,,,,,,m,001,2021_Jul_07_1709,toilet,2021.1.3,99.80796946564436,
0,0,4,-4,1.06,,,,,2,0,2,0,0,51,51,12,,,,,,,,,,,,,,,,,,,,,,,972.2139193000039,None,972.2139193000039,None,971.7135781999968,None,f,0.7063255999964895,972.2139193000039,None,,,,,,,,,,,,,m,001,2021_Jul_07_1709,toilet,2021.1.3,99.80796946564436,
180,180,-4,4,1.15,,,,,2,0,2,0,0,52,52,34,,,,,,,,,,,,,,,,,,,,,,,973.9451046000031,None,973.9451046000031,None,973.4447520000103,None,j,0.6074648999929195,973.9451046000031,None,,,,,,,,,,,,,m,001,2021_Jul_07_1709,toilet,2021.1.3,99.80796946564436,
180,0,-4,4,1.06,,,,,2,0,2,0,0,53,53,47,,,,,,,,,,,,,,,,,,,,,,,975.5761998000089,None,975.5761998000089,None,975.0759547000052,None,f,0.7518457999976818,975.5761998000089,None,,,,,,,,,,,,,m,001,2021_Jul_07_1709,toilet,2021.1.3,99.80796946564436,
180,0,-4,4,0.94,,,,,2,0,2,0,0,54,54,43,,,,,,,,,,,,,,,,,,,,,,,977.3274228000082,None,977.3274228000082,None,976.8271288999968,None,f,0.7608901999919908,977.3274228000082,None,,,,,,,,,,,,,m,001,2021_Jul_07_1709,toilet,2021.1.3,99.80796946564436,
180,180,-4,4,0.97,,,,,2,0,2,0,0,55,55,30,,,,,,,,,,,,,,,,,,,,,,,979.0885784999991,None,979.0885784999991,None,978.5882421999995,None,f,0.9034630999958608,979.0885784999991,None,,,,,,,,,,,,,m,001,2021_Jul_07_1709,toilet,2021.1.3,99.80796946564436,
0,180,-4,4,0.94,,,,,2,0,2,0,1,0,56,15,,,,,,,,,,,,,,,,,,,,,,,980.9998777000001,None,980.9998777000001,None,980.4995353999984,None,f,5.600168000004487,980.9998777000001,None,,,,,,,,,,,,,m,001,2021_Jul_07_1709,toilet,2021.1.3,99.80796946564436,
180,180,4,-4,0.97,,,,,2,0,2,0,1,1,57,37,,,,,,,,,,,,,,,,,,,,,,,987.604353600007,None,987.604353600007,None,987.1040483999968,None,j,0.7079262000042945,987.604353600007,None,,,,,,,,,,,,,m,001,2021_Jul_07_1709,toilet,2021.1.3,99.80796946564436,
180,180,-4,4,1.15,,,,,2,0,2,0,1,2,58,34,,,,,,,,,,,,,,,,,,,,,,,989.3255234000098,None,989.3255234000098,None,988.8251829000073,None,j,0.6666654000000563,989.3255234000098,None,,,,,,,,,,,,,m,001,2021_Jul_07_1709,toilet,2021.1.3,99.80796946564436,
180,180,4,-4,1.0,,,,,2,0,2,0,1,3,59,38,,,,,,,,,,,,,,,,,,,,,,,991.0067375000071,None,991.0067375000071,None,990.5063220000011,None,j,1.1452932999964105,991.0067375000071,None,,,,,,,,,,,,,m,001,2021_Jul_07_1709,toilet,2021.1.3,99.80796946564436,
180,180,-4,4,0.94,,,,,2,0,2,0,1,4,60,29,,,,,,,,,,,,,,,,,,,,,,,993.1681272999995,None,993.1681272999995,None,992.6677887999977,None,f,0.8240097999951104,993.1681272999995,None,,,,,,,,,,,,,m,001,2021_Jul_07_1709,toilet,2021.1.3,99.80796946564436,
180,0,-4,4,1.06,,,,,2,0,2,0,1,5,61,47,,,,,,,,,,,,,,,,,,,,,,,994.99937830001,None,994.99937830001,None,994.4990363999968,None,f,0.6726819000032265,994.99937830001,None,,,,,,,,,,,,,m,001,2021_Jul_07_1709,toilet,2021.1.3,99.80796946564436,
180,180,4,-4,0.85,,,,,2,0,2,0,1,6,62,35,,,,,,,,,,,,,,,,,,,,,,,996.6805078000034,None,996.6805078000034,None,996.1801635000011,None,j,0.5115167999902042,996.6805078000034,None,,,,,,,,,,,,,m,001,2021_Jul_07_1709,toilet,2021.1.3,99.80796946564436,
0,180,4,-4,1.06,,,,,2,0,2,0,1,7,63,26,,,,,,,,,,,,,,,,,,,,,,,998.1916062000091,None,998.1916062000091,None,997.691196300002,None,f,0.6646267000032822,998.1916062000091,None,,,,,,,,,,,,,m,001,2021_Jul_07_1709,toilet,2021.1.3,99.80796946564436,
0,0,4,-4,1.0,,,,,2,0,2,0,1,8,64,10,,,,,,,,,,,,,,,,,,,,,,,999.872675400009,None,999.872675400009,None,999.3723731000064,None,j,0.5834361000015633,999.872675400009,None,,,,,,,,,,,,,m,001,2021_Jul_07_1709,toilet,2021.1.3,99.80796946564436,
180,0,4,-4,1.03,,,,,2,0,2,0,1,9,65,53,,,,,,,,,,,,,,,,,,,,,,,1001.4637552000058,None,1001.4637552000058,None,1000.9634176999971,None,f,0.8964989000087371,1001.4637552000058,None,,,,,,,,,,,,,m,001,2021_Jul_07_1709,toilet,2021.1.3,99.80796946564436,
0,0,-4,4,1.06,,,,,2,0,2,0,1,10,66,5,,,,,,,,,,,,,,,,,,,,,,,1003.375052000003,None,1003.375052000003,None,1002.8747130999982,None,j,0.7290568000025814,1003.375052000003,None,,,,,,,,,,,,,m,001,2021_Jul_07_1709,toilet,2021.1.3,99.80796946564436,
0,180,-4,4,1.0,,,,,2,0,2,0,1,11,67,17,,,,,,,,,,,,,,,,,,,,,,,1005.1162364000047,None,1005.1162364000047,None,1004.6158923000039,None,j,0.635940500011202,1005.1162364000047,None,,,,,,,,,,,,,m,001,2021_Jul_07_1709,toilet,2021.1.3,99.80796946564436,
180,180,4,-4,1.03,,,,,2,0,2,0,1,12,68,39,,,,,,,,,,,,,,,,,,,,,,,1006.7673846999969,None,1006.7673846999969,None,1006.2670385000092,None,j,0.9048121000087122,1006.7673846999969,None,,,,,,,,,,,,,m,001,2021_Jul_07_1709,toilet,2021.1.3,99.80796946564436,
180,0,-4,4,1.15,,,,,2,0,2,0,1,13,69,48,,,,,,,,,,,,,,,,,,,,,,,1008.6786475999979,None,1008.6786475999979,None,1008.1783054999978,None,j,0.6093913000077009,1008.6786475999979,None,,,,,,,,,,,,,m,001,2021_Jul_07_1709,toilet,2021.1.3,99.80796946564436,
0,180,-4,4,1.03,,,,,2,0,2,0,1,14,70,18,,,,,,,,,,,,,,,,,,,,,,,1010.289738499996,None,1010.289738499996,None,1009.7894019000087,None,f,0.9024379000038607,1010.289738499996,None,,,,,,,,,,,,,m,001,2021_Jul_07_1709,toilet,2021.1.3,99.80796946564436,
0,180,-4,4,0.85,,,,,2,0,2,0,1,15,71,14,,,,,,,,,,,,,,,,,,,,,,,1012.2010546000092,None,1012.2010546000092,None,1011.7007012000104,None,f,0.7031289000005927,1012.2010546000092,None,,,,,,,,,,,,,m,001,2021_Jul_07_1709,toilet,2021.1.3,99.80796946564436,
180,0,-4,4,0.85,,,,,2,0,2,0,1,16,72,42,,,,,,,,,,,,,,,,,,,,,,,1013.9222386000038,None,1013.9222386000038,None,1013.4219445000053,None,f,0.7098101000010502,1013.9222386000038,None,,,,,,,,,,,,,m,001,2021_Jul_07_1709,toilet,2021.1.3,99.80796946564436,
180,0,4,-4,1.15,,,,,2,0,2,0,1,17,73,55,,,,,,,,,,,,,,,,,,,,,,,1015.6333636000054,None,1015.6333636000054,None,1015.1330245999998,None,f,0.5507141000125557,1015.6333636000054,None,,,,,,,,,,,,,m,001,2021_Jul_07_1709,toilet,2021.1.3,99.80796946564436,
0,0,-4,4,1.15,,,,,2,0,2,0,1,18,74,6,,,,,,,,,,,,,,,,,,,,,,,1017.1844185000082,None,1017.1844185000082,None,1016.6840775000019,None,j,0.7437918000068748,1017.1844185000082,None,,,,,,,,,,,,,m,001,2021_Jul_07_1709,toilet,2021.1.3,99.80796946564436,
180,0,4,-4,0.94,,,,,2,0,2,0,1,19,75,50,,,,,,,,,,,,,,,,,,,,,,,1018.9456093000044,None,1018.9456093000044,None,1018.4452726000018,None,j,0.7744465999858221,1018.9456093000044,None,,,,,,,,,,,,,m,001,2021_Jul_07_1709,toilet,2021.1.3,99.80796946564436,
180,0,4,-4,0.85,,,,,2,0,2,0,1,20,76,49,,,,,,,,,,,,,,,,,,,,,,,1020.7269025999994,None,1020.7269025999994,None,1020.2265609000024,None,j,0.673289600003045,1020.7269025999994,None,,,,,,,,,,,,,m,001,2021_Jul_07_1709,toilet,2021.1.3,99.80796946564436,
0,0,-4,4,0.94,,,,,2,0,2,0,1,21,77,1,,,,,,,,,,,,,,,,,,,,,,,1022.417970399998,None,1022.417970399998,None,1021.9176415999973,None,f,0.8221531000017421,1022.417970399998,None,,,,,,,,,,,,,m,001,2021_Jul_07_1709,toilet,2021.1.3,99.80796946564436,
180,0,4,-4,1.06,,,,,2,0,2,0,1,22,78,54,,,,,,,,,,,,,,,,,,,,,,,1024.2392017000093,None,1024.2392017000093,None,1023.7388598999969,None,f,1.3049596000055317,1024.2392017000093,None,,,,,,,,,,,,,m,001,2021_Jul_07_1709,toilet,2021.1.3,99.80796946564436,
180,180,4,-4,0.94,,,,,2,0,2,0,1,23,79,36,,,,,,,,,,,,,,,,,,,,,,,1026.5607809000066,None,1026.5607809000066,None,1026.060440900008,None,j,0.6793353000102798,1026.5607809000066,None,,,,,,,,,,,,,m,001,2021_Jul_07_1709,toilet,2021.1.3,99.80796946564436,
180,0,-4,4,1.0,,,,,2,0,2,0,1,24,80,45,,,,,,,,,,,,,,,,,,,,,,,1028.2419892000034,None,1028.2419892000034,None,1027.7416761000059,None,f,0.9500140000018291,1028.2419892000034,None,,,,,,,,,,,,,m,001,2021_Jul_07_1709,toilet,2021.1.3,99.80796946564436,
0,180,4,-4,0.85,,,,,2,0,2,0,1,25,81,21,,,,,,,,,,,,,,,,,,,,,,,1030.1932443999976,None,1030.1932443999976,None,1029.6929023999983,None,j,0.6628665000025649,1030.1932443999976,None,,,,,,,,,,,,,m,001,2021_Jul_07_1709,toilet,2021.1.3,99.80796946564436,
0,180,4,-4,1.03,,,,,2,0,2,0,1,26,82,25,,,,,,,,,,,,,,,,,,,,,,,1031.8643725000002,None,1031.8643725000002,None,1031.364035599996,None,f,0.8959499000047799,1031.8643725000002,None,,,,,,,,,,,,,m,001,2021_Jul_07_1709,toilet,2021.1.3,99.80796946564436,
180,180,4,-4,1.15,,,,,2,0,2,0,1,27,83,41,,,,,,,,,,,,,,,,,,,,,,,1033.7756776000024,None,1033.7756776000024,None,1033.2753314000001,None,f,0.6804592000116827,1033.7756776000024,None,,,,,,,,,,,,,m,001,2021_Jul_07_1709,toilet,2021.1.3,99.80796946564436,
180,0,-4,4,1.03,,,,,2,0,2,0,1,28,84,46,,,,,,,,,,,,,,,,,,,,,,,1035.4668817000056,None,1035.4668817000056,None,1034.9665573000093,None,j,1.9652220999996644,1035.4668817000056,None,,,,,,,,,,,,,m,001,2021_Jul_07_1709,toilet,2021.1.3,99.80796946564436,
0,180,4,-4,0.97,,,,,2,0,2,0,1,29,85,23,,,,,,,,,,,,,,,,,,,,,,,1038.4388315999968,None,1038.4388315999968,None,1037.9384922000027,None,j,0.6575043000048026,1038.4388315999968,None,,,,,,,,,,,,,m,001,2021_Jul_07_1709,toilet,2021.1.3,99.80796946564436,
180,180,-4,4,1.03,,,,,2,0,2,0,1,30,86,32,,,,,,,,,,,,,,,,,,,,,,,1040.1099657000013,None,1040.1099657000013,None,1039.6096319000062,None,j,0.5700932999898214,1040.1099657000013,None,,,,,,,,,,,,,m,001,2021_Jul_07_1709,toilet,2021.1.3,99.80796946564436,
0,180,4,-4,0.94,,,,,2,0,2,0,1,31,87,22,,,,,,,,,,,,,,,,,,,,,,,1041.6811121000064,None,1041.6811121000064,None,1041.1806936000066,None,j,1.07897519999824,1041.6811121000064,None,,,,,,,,,,,,,m,001,2021_Jul_07_1709,toilet,2021.1.3,99.80796946564436,
0,0,4,-4,1.06,,,,,2,0,2,0,1,32,88,12,,,,,,,,,,,,,,,,,,,,,,,1043.7724825000041,None,1043.7724825000041,None,1043.2721493999998,None,f,0.6835605999949621,1043.7724825000041,None,,,,,,,,,,,,,m,001,2021_Jul_07_1709,toilet,2021.1.3,99.80796946564436,
0,0,-4,4,1.03,,,,,2,0,2,0,1,33,89,4,,,,,,,,,,,,,,,,,,,,,,,1045.4635960000014,None,1045.4635960000014,None,1044.9632625000086,None,j,0.8004823999945074,1045.4635960000014,None,,,,,,,,,,,,,m,001,2021_Jul_07_1709,toilet,2021.1.3,99.80796946564436,
180,0,4,-4,0.97,,,,,2,0,2,0,1,34,90,51,,,,,,,,,,,,,,,,,,,,,,,1047.2748286999995,None,1047.2748286999995,None,1046.7744845999987,None,j,0.6052135999925667,1047.2748286999995,None,,,,,,,,,,,,,m,001,2021_Jul_07_1709,toilet,2021.1.3,99.80796946564436,
0,180,-4,4,0.97,,,,,2,0,2,0,1,35,91,16,,,,,,,,,,,,,,,,,,,,,,,1048.8959615000058,None,1048.8959615000058,None,1048.3955908000062,None,j,0.696288299994194,1048.8959615000058,None,,,,,,,,,,,,,m,001,2021_Jul_07_1709,toilet,2021.1.3,99.80796946564436,
0,0,-4,4,0.97,,,,,2,0,2,0,1,36,92,2,,,,,,,,,,,,,,,,,,,,,,,1050.6071730999975,None,1050.6071730999975,None,1050.1068355000025,None,j,0.7129023000015877,1050.6071730999975,None,,,,,,,,,,,,,m,001,2021_Jul_07_1709,toilet,2021.1.3,99.80796946564436,
0,0,4,-4,1.03,,,,,2,0,2,0,1,37,93,11,,,,,,,,,,,,,,,,,,,,,,,1052.3282545999973,None,1052.3282545999973,None,1051.8279179000092,None,f,0.5757672000036109,1052.3282545999973,None,,,,,,,,,,,,,m,001,2021_Jul_07_1709,toilet,2021.1.3,99.80796946564436,
0,180,4,-4,1.15,,,,,2,0,2,0,1,38,94,27,,,,,,,,,,,,,,,,,,,,,,,1053.9093283999973,None,1053.9093283999973,None,1053.4089913000062,None,f,0.5307982999947853,1053.9093283999973,None,,,,,,,,,,,,,m,001,2021_Jul_07_1709,toilet,2021.1.3,99.80796946564436,
180,180,-4,4,0.97,,,,,2,0,2,0,1,39,95,30,,,,,,,,,,,,,,,,,,,,,,,1055.4503758000064,None,1055.4503758000064,None,1054.9500315000041,None,f,1.2778496000100859,1055.4503758000064,None,,,,,,,,,,,,,m,001,2021_Jul_07_1709,toilet,2021.1.3,99.80796946564436,
180,180,-4,4,1.06,,,,,2,0,2,0,1,40,96,33,,,,,,,,,,,,,,,,,,,,,,,1057.7420009000052,None,1057.7420009000052,None,1057.2416625000042,None,j,1.2259918999916408,1057.7420009000052,None,,,,,,,,,,,,,m,001,2021_Jul_07_1709,toilet,2021.1.3,99.80796946564436,
0,0,4,-4,0.94,,,,,2,0,2,0,1,41,97,8,,,,,,,,,,,,,,,,,,,,,,,1059.9734406000061,None,1059.9734406000061,None,1059.4730988000083,None,j,0.9145647000113968,1059.9734406000061,None,,,,,,,,,,,,,m,001,2021_Jul_07_1709,toilet,2021.1.3,99.80796946564436,
0,0,4,-4,0.97,,,,,2,0,2,0,1,42,98,9,,,,,,,,,,,,,,,,,,,,,,,1061.8947427000094,None,1061.8947427000094,None,1061.394424900005,None,j,0.7693408000050113,1061.8947427000094,None,,,,,,,,,,,,,m,001,2021_Jul_07_1709,toilet,2021.1.3,99.80796946564436,
180,0,-4,4,0.97,,,,,2,0,2,0,1,43,99,44,,,,,,,,,,,,,,,,,,,,,,,1063.666025700004,None,1063.666025700004,None,1063.165636500009,None,f,4.309995300005539,1063.666025700004,None,,,,,,,,,,,,,m,001,2021_Jul_07_1709,toilet,2021.1.3,99.80796946564436,
0,0,4,-4,1.15,,,,,2,0,2,0,1,44,100,13,,,,,,,,,,,,,,,,,,,,,,,1068.9795466000069,None,1068.9795466000069,None,1068.4792076000012,None,f,0.6605381000117632,1068.9795466000069,None,,,,,,,,,,,,,m,001,2021_Jul_07_1709,toilet,2021.1.3,99.80796946564436,
0,0,-4,4,1.0,,,,,2,0,2,0,1,45,101,3,,,,,,,,,,,,,,,,,,,,,,,1070.6507715000043,None,1070.6507715000043,None,1070.1503422000096,None,f,0.7972444000042742,1070.6507715000043,None,,,,,,,,,,,,,m,001,2021_Jul_07_1709,toilet,2021.1.3,99.80796946564436,
0,180,-4,4,1.06,,,,,2,0,2,0,1,46,102,19,,,,,,,,,,,,,,,,,,,,,,,1072.4519998000033,None,1072.4519998000033,None,1071.951634099998,None,j,0.7400477999908617,1072.4519998000033,None,,,,,,,,,,,,,m,001,2021_Jul_07_1709,toilet,2021.1.3,99.80796946564436,
180,0,4,-4,1.0,,,,,2,0,2,0,1,47,103,52,,,,,,,,,,,,,,,,,,,,,,,1074.2030938000098,None,1074.2030938000098,None,1073.702749700009,None,j,1.228912600010517,1074.2030938000098,None,,,,,,,,,,,,,m,001,2021_Jul_07_1709,toilet,2021.1.3,99.80796946564436,
180,0,-4,4,0.94,,,,,2,0,2,0,1,48,104,43,,,,,,,,,,,,,,,,,,,,,,,1076.4346053000045,None,1076.4346053000045,None,1075.9342617000075,None,f,0.6776783999957843,1076.4346053000045,None,,,,,,,,,,,,,m,001,2021_Jul_07_1709,toilet,2021.1.3,99.80796946564436,
0,180,4,-4,1.0,,,,,2,0,2,0,1,49,105,24,,,,,,,,,,,,,,,,,,,,,,,1078.1258435000054,None,1078.1258435000054,None,1077.6254125999985,None,f,0.7942746999906376,1078.1258435000054,None,,,,,,,,,,,,,m,001,2021_Jul_07_1709,toilet,2021.1.3,99.80796946564436,
180,180,4,-4,1.06,,,,,2,0,2,0,1,50,106,40,,,,,,,,,,,,,,,,,,,,,,,1079.9270619000017,None,1079.9270619000017,None,1079.4267295000027,None,j,0.8970638000027975,1079.9270619000017,None,,,,,,,,,,,,,m,001,2021_Jul_07_1709,toilet,2021.1.3,99.80796946564436,
0,180,-4,4,1.15,,,,,2,0,2,0,1,51,107,20,,,,,,,,,,,,,,,,,,,,,,,1081.8282624999993,None,1081.8282624999993,None,1081.3279184999992,None,j,0.6438895000028424,1081.8282624999993,None,,,,,,,,,,,,,m,001,2021_Jul_07_1709,toilet,2021.1.3,99.80796946564436,
180,180,-4,4,1.0,,,,,2,0,2,0,1,52,108,31,,,,,,,,,,,,,,,,,,,,,,,1083.4793803000066,None,1083.4793803000066,None,1082.97904250001,None,j,0.9607507000037003,1083.4793803000066,None,,,,,,,,,,,,,m,001,2021_Jul_07_1709,toilet,2021.1.3,99.80796946564436,
180,180,-4,4,0.85,,,,,2,0,2,0,1,53,109,28,,,,,,,,,,,,,,,,,,,,,,,1085.450721400004,None,1085.450721400004,None,1084.9503838000091,None,f,0.6692942999943625,1085.450721400004,None,,,,,,,,,,,,,m,001,2021_Jul_07_1709,toilet,2021.1.3,99.80796946564436,
0,0,4,-4,0.85,,,,,2,0,2,0,1,54,110,7,,,,,,,,,,,,,,,,,,,,,,,1087.1218748999963,None,1087.1218748999963,None,1086.6215921999974,None,j,0.5662562999932561,1087.1218748999963,None,,,,,,,,,,,,,m,001,2021_Jul_07_1709,toilet,2021.1.3,99.80796946564436,
0,0,-4,4,0.85,,,,,2,0,2,0,1,55,111,0,,,,,,,,,,,,,,,,,,,,,,,1088.702920900003,None,1088.702920900003,None,1088.2025808000035,None,f,1.0010732999944594,1088.702920900003,None,,,,,,,,,,,,,m,001,2021_Jul_07_1709,toilet,2021.1.3,99.80796946564436,
,,,,,,,,,2,0,2,0,,,,,,,,,,,,,,,,,,,,,,,,,,,,,,,,,,,,,1089.7136125999968,None,space,125.19043099999544,1089.7136125999968,None,,,,,,,m,001,2021_Jul_07_1709,toilet,2021.1.3,99.80796946564436,
180,0,-4,4,1.03,,,,,3,0,3,0,0,0,0,46,,,,,,,,,,,,,,,,,1214.9185349000036,None,space,4.96147719999135,1214.9185349000036,None,1220.9025853000057,None,1220.9025853000057,None,1220.402341100009,None,f,0.9293522000079975,1220.9025853000057,None,,,,,,,,,,,,,m,001,2021_Jul_07_1709,toilet,2021.1.3,99.80796946564436,
0,0,-4,4,1.0,,,,,3,0,3,0,0,1,1,3,,,,,,,,,,,,,,,,,,,,,,,1222.8339027000038,None,1222.8339027000038,None,1222.333561300009,None,j,2.934163999991142,1222.8339027000038,None,,,,,,,,,,,,,m,001,2021_Jul_07_1709,toilet,2021.1.3,99.80796946564436,
0,180,-4,4,1.06,,,,,3,0,3,0,0,2,2,19,,,,,,,,,,,,,,,,,,,,,,,1226.776666100006,None,1226.776666100006,None,1226.2763187000091,None,j,1.391210300003877,1226.776666100006,None,,,,,,,,,,,,,m,001,2021_Jul_07_1709,toilet,2021.1.3,99.80796946564436,
0,180,-4,4,0.97,,,,,3,0,3,0,0,3,3,16,,,,,,,,,,,,,,,,,,,,,,,1229.168195300008,None,1229.168195300008,None,1228.6678607000067,None,f,0.823803700011922,1229.168195300008,None,,,,,,,,,,,,,m,001,2021_Jul_07_1709,toilet,2021.1.3,99.80796946564436,
180,0,4,-4,0.85,,,,,3,0,3,0,0,4,4,49,,,,,,,,,,,,,,,,,,,,,,,1230.9994418999995,None,1230.9994418999995,None,1230.4991006000055,None,j,0.4647450999909779,1230.9994418999995,None,,,,,,,,,,,,,m,001,2021_Jul_07_1709,toilet,2021.1.3,99.80796946564436,
180,180,4,-4,1.0,,,,,3,0,3,0,0,5,5,38,,,,,,,,,,,,,,,,,,,,,,,1232.480448000002,None,1232.480448000002,None,1231.9801060000027,None,f,0.9195617999939714,1232.480448000002,None,,,,,,,,,,,,,m,001,2021_Jul_07_1709,toilet,2021.1.3,99.80796946564436,
0,0,-4,4,0.97,,,,,3,0,3,0,0,6,6,2,,,,,,,,,,,,,,,,,,,,,,,1234.4117546000052,None,1234.4117546000052,None,1233.9115021000034,None,j,0.7482481000042753,1234.4117546000052,None,,,,,,,,,,,,,m,001,2021_Jul_07_1709,toilet,2021.1.3,99.80796946564436,
180,0,-4,4,1.15,,,,,3,0,3,0,0,7,7,48,,,,,,,,,,,,,,,,,,,,,,,1236.1629468000028,None,1236.1629468000028,None,1235.662605400008,None,j,1.333070399996359,1236.1629468000028,None,,,,,,,,,,,,,m,001,2021_Jul_07_1709,toilet,2021.1.3,99.80796946564436,
0,180,4,-4,0.97,,,,,3,0,3,0,0,8,8,23,,,,,,,,,,,,,,,,,,,,,,,1238.504547500008,None,1238.504547500008,None,1238.004191,None,f,0.8156358999985969,1238.504547500008,None,,,,,,,,,,,,,m,001,2021_Jul_07_1709,toilet,2021.1.3,99.80796946564436,
180,180,-4,4,1.03,,,,,3,0,3,0,0,9,9,32,,,,,,,,,,,,,,,,,,,,,,,1240.3357917999965,None,1240.3357917999965,None,1239.8354346999986,None,j,0.5523433999915142,1240.3357917999965,None,,,,,,,,,,,,,m,001,2021_Jul_07_1709,toilet,2021.1.3,99.80796946564436,
0,180,4,-4,1.15,,,,,3,0,3,0,0,10,10,27,,,,,,,,,,,,,,,,,,,,,,,1241.9069242999976,None,1241.9069242999976,None,1241.4065692000004,None,f,0.4690687000111211,1241.9069242999976,None,,,,,,,,,,,,,m,001,2021_Jul_07_1709,toilet,2021.1.3,99.80796946564436,
0,0,-4,4,0.94,,,,,3,0,3,0,0,11,11,1,,,,,,,,,,,,,,,,,,,,,,,1243.387840700001,None,1243.387840700001,None,1242.8874997000094,None,j,0.556091499995091,1243.387840700001,None,,,,,,,,,,,,,m,001,2021_Jul_07_1709,toilet,2021.1.3,99.80796946564436,
180,180,4,-4,0.94,,,,,3,0,3,0,0,12,12,36,,,,,,,,,,,,,,,,,,,,,,,1244.9489086000103,None,1244.9489086000103,None,1244.4485630999989,None,j,0.49901430000318214,1244.9489086000103,None,,,,,,,,,,,,,m,001,2021_Jul_07_1709,toilet,2021.1.3,99.80796946564436,
0,180,-4,4,1.03,,,,,3,0,3,0,0,13,13,18,,,,,,,,,,,,,,,,,,,,,,,1246.4499137000093,None,1246.4499137000093,None,1245.9495807000058,None,j,0.5661696000024676,1246.4499137000093,None,,,,,,,,,,,,,m,001,2021_Jul_07_1709,toilet,2021.1.3,99.80796946564436,
180,180,-4,4,0.85,,,,,3,0,3,0,0,14,14,28,,,,,,,,,,,,,,,,,,,,,,,1248.0309960000013,None,1248.0309960000013,None,1247.530650700006,None,f,0.5052139000035822,1248.0309960000013,None,,,,,,,,,,,,,m,001,2021_Jul_07_1709,toilet,2021.1.3,99.80796946564436,
0,0,-4,4,0.85,,,,,3,0,3,0,0,15,15,0,,,,,,,,,,,,,,,,,,,,,,,1249.5520999,None,1249.5520999,None,1249.0517593999975,None,f,0.5518854999972973,1249.5520999,None,,,,,,,,,,,,,m,001,2021_Jul_07_1709,toilet,2021.1.3,99.80796946564436,
180,180,-4,4,1.0,,,,,3,0,3,0,0,16,16,31,,,,,,,,,,,,,,,,,,,,,,,1251.113082099997,None,1251.113082099997,None,1250.6127441999997,None,j,1.3909773000050336,1251.113082099997,None,,,,,,,,,,,,,m,001,2021_Jul_07_1709,toilet,2021.1.3,99.80796946564436,
0,180,-4,4,1.15,,,,,3,0,3,0,0,17,17,20,,,,,,,,,,,,,,,,,,,,,,,1253.504706599997,None,1253.504706599997,None,1253.0044047999982,None,j,0.5193017999990843,1253.504706599997,None,,,,,,,,,,,,,m,001,2021_Jul_07_1709,toilet,2021.1.3,99.80796946564436,
180,180,-4,4,1.15,,,,,3,0,3,0,0,18,18,34,,,,,,,,,,,,,,,,,,,,,,,1255.0357777000027,None,1255.0357777000027,None,1254.5354345000087,None,j,0.46026789999450557,1255.0357777000027,None,,,,,,,,,,,,,m,001,2021_Jul_07_1709,toilet,2021.1.3,99.80796946564436,
0,0,4,-4,0.94,,,,,3,0,3,0,0,19,19,8,,,,,,,,,,,,,,,,,,,,,,,1256.4968126000022,None,1256.4968126000022,None,1255.996476900007,None,j,4.343256100008148,1256.4968126000022,None,,,,,,,,,,,,,m,001,2021_Jul_07_1709,toilet,2021.1.3,99.80796946564436,
0,0,4,-4,0.85,,,,,3,0,3,0,0,20,20,7,,,,,,,,,,,,,,,,,,,,,,,1261.8503656999965,None,1261.8503656999965,None,1261.3500292000099,None,j,0.4937342000048375,1261.8503656999965,None,,,,,,,,,,,,,m,001,2021_Jul_07_1709,toilet,2021.1.3,99.80796946564436,
0,0,-4,4,1.03,,,,,3,0,3,0,0,21,21,4,,,,,,,,,,,,,,,,,,,,,,,1263.3614713999996,None,1263.3614713999996,None,1262.861132799997,None,j,0.9185187999974005,1263.3614713999996,None,,,,,,,,,,,,,m,001,2021_Jul_07_1709,toilet,2021.1.3,99.80796946564436,
180,0,-4,4,1.06,,,,,3,0,3,0,0,22,22,47,,,,,,,,,,,,,,,,,,,,,,,1265.2927034000022,None,1265.2927034000022,None,1264.7923689000017,None,j,1.0032210999925155,1265.2927034000022,None,,,,,,,,,,,,,m,001,2021_Jul_07_1709,toilet,2021.1.3,99.80796946564436,
0,0,4,-4,1.0,,,,,3,0,3,0,0,23,23,10,,,,,,,,,,,,,,,,,,,,,,,1267.304063100004,None,1267.304063100004,None,1266.803729799998,None,j,0.6719690000027185,1267.304063100004,None,,,,,,,,,,,,,m,001,2021_Jul_07_1709,toilet,2021.1.3,99.80796946564436,
0,180,4,-4,0.85,,,,,3,0,3,0,0,24,24,21,,,,,,,,,,,,,,,,,,,,,,,1268.98520380001,None,1268.98520380001,None,1268.4848652000073,None,j,0.5107793000061065,1268.98520380001,None,,,,,,,,,,,,,m,001,2021_Jul_07_1709,toilet,2021.1.3,99.80796946564436,
180,0,-4,4,1.0,,,,,3,0,3,0,0,25,25,45,,,,,,,,,,,,,,,,,,,,,,,1270.5063257000002,None,1270.5063257000002,None,1270.005910699998,None,f,0.6216107000072952,1270.5063257000002,None,,,,,,,,,,,,,m,001,2021_Jul_07_1709,toilet,2021.1.3,99.80796946564436,
180,180,-4,4,1.06,,,,,3,0,3,0,0,26,26,33,,,,,,,,,,,,,,,,,,,,,,,1272.1273486999999,None,1272.1273486999999,None,1271.637095099999,None,j,0.6485826999996789,1272.1273486999999,None,,,,,,,,,,,,,m,001,2021_Jul_07_1709,toilet,2021.1.3,99.80796946564436,
0,0,-4,4,1.06,,,,,3,0,3,0,0,27,27,5,,,,,,,,,,,,,,,,,,,,,,,1273.7784600000014,None,1273.7784600000014,None,1273.278117199996,None,j,0.64555920001294,1273.7784600000014,None,,,,,,,,,,,,,m,001,2021_Jul_07_1709,toilet,2021.1.3,99.80796946564436,
180,180,4,-4,0.97,,,,,3,0,3,0,0,28,28,37,,,,,,,,,,,,,,,,,,,,,,,1275.429575800008,None,1275.429575800008,None,1274.929240700003,None,j,0.5465123000030871,1275.429575800008,None,,,,,,,,,,,,,m,001,2021_Jul_07_1709,toilet,2021.1.3,99.80796946564436,
180,180,-4,4,0.97,,,,,3,0,3,0,0,29,29,30,,,,,,,,,,,,,,,,,,,,,,,1276.990643600002,None,1276.990643600002,None,1276.4902956000005,None,f,0.5855594999884488,1276.990643600002,None,,,,,,,,,,,,,m,001,2021_Jul_07_1709,toilet,2021.1.3,99.80796946564436,
180,0,4,-4,1.03,,,,,3,0,3,0,0,30,30,53,,,,,,,,,,,,,,,,,,,,,,,1278.5918000000092,None,1278.5918000000092,None,1278.0913800999988,None,j,0.6641776000033133,1278.5918000000092,None,,,,,,,,,,,,,m,001,2021_Jul_07_1709,toilet,2021.1.3,99.80796946564436,
180,0,4,-4,1.06,,,,,3,0,3,0,0,31,31,54,,,,,,,,,,,,,,,,,,,,,,,1280.2728635000094,None,1280.2728635000094,None,1279.7725227000046,None,f,1.1111098999972455,1280.2728635000094,None,,,,,,,,,,,,,m,001,2021_Jul_07_1709,toilet,2021.1.3,99.80796946564436,
0,0,4,-4,1.06,,,,,3,0,3,0,0,32,32,12,,,,,,,,,,,,,,,,,,,,,,,1282.3842955,None,1282.3842955,None,1281.8839578000043,None,f,0.5838827999978093,1282.3842955,None,,,,,,,,,,,,,m,001,2021_Jul_07_1709,toilet,2021.1.3,99.80796946564436,
180,0,4,-4,0.94,,,,,3,0,3,0,0,33,33,50,,,,,,,,,,,,,,,,,,,,,,,1283.985379500009,None,1283.985379500009,None,1283.4850352000067,None,j,0.4865295000054175,1283.985379500009,None,,,,,,,,,,,,,m,001,2021_Jul_07_1709,toilet,2021.1.3,99.80796946564436,
0,180,-4,4,0.94,,,,,3,0,3,0,0,34,34,15,,,,,,,,,,,,,,,,,,,,,,,1285.4764843000012,None,1285.4764843000012,None,1284.9760495000082,None,f,1.3313990000024205,1285.4764843000012,None,,,,,,,,,,,,,m,001,2021_Jul_07_1709,toilet,2021.1.3,99.80796946564436,
180,0,4,-4,1.15,,,,,3,0,3,0,0,35,35,55,,,,,,,,,,,,,,,,,,,,,,,1287.807969600006,None,1287.807969600006,None,1287.3076632000011,None,f,0.5680006000038702,1287.807969600006,None,,,,,,,,,,,,,m,001,2021_Jul_07_1709,toilet,2021.1.3,99.80796946564436,
180,0,4,-4,1.0,,,,,3,0,3,0,0,36,36,52,,,,,,,,,,,,,,,,,,,,,,,1289.379037400009,None,1289.379037400009,None,1288.8787004000042,None,j,2.4049807999981567,1289.379037400009,None,,,,,,,,,,,,,m,001,2021_Jul_07_1709,toilet,2021.1.3,99.80796946564436,
0,0,4,-4,1.03,,,,,3,0,3,0,0,37,37,11,,,,,,,,,,,,,,,,,,,,,,,1292.801364400002,None,1292.801364400002,None,1292.3011038999975,None,f,2.790539000008721,1292.801364400002,None,,,,,,,,,,,,,m,001,2021_Jul_07_1709,toilet,2021.1.3,99.80796946564436,
180,180,-4,4,0.94,,,,,3,0,3,0,0,38,38,29,,,,,,,,,,,,,,,,,,,,,,,1296.5939268000075,None,1296.5939268000075,None,1296.0935907000094,None,f,0.6142991000087932,1296.5939268000075,None,,,,,,,,,,,,,m,001,2021_Jul_07_1709,toilet,2021.1.3,99.80796946564436,
180,0,-4,4,0.94,,,,,3,0,3,0,0,39,39,43,,,,,,,,,,,,,,,,,,,,,,,1298.2250377000018,None,1298.2250377000018,None,1297.724693600001,None,f,0.5349159000033978,1298.2250377000018,None,,,,,,,,,,,,,m,001,2021_Jul_07_1709,toilet,2021.1.3,99.80796946564436,
180,0,-4,4,0.85,,,,,3,0,3,0,0,40,40,42,,,,,,,,,,,,,,,,,,,,,,,1299.7661683000042,None,1299.7661683000042,None,1299.2657438000024,None,f,0.5777965000015683,1299.7661683000042,None,,,,,,,,,,,,,m,001,2021_Jul_07_1709,toilet,2021.1.3,99.80796946564436,
0,180,4,-4,0.94,,,,,3,0,3,0,0,41,41,22,,,,,,,,,,,,,,,,,,,,,,,1301.3571990000055,None,1301.3571990000055,None,1300.8569056999986,None,j,0.6667260999965947,1301.3571990000055,None,,,,,,,,,,,,,m,001,2021_Jul_07_1709,toilet,2021.1.3,99.80796946564436,
0,180,4,-4,1.03,,,,,3,0,3,0,0,42,42,25,,,,,,,,,,,,,,,,,,,,,,,1303.028298300007,None,1303.028298300007,None,1302.527957600003,None,f,0.5956161000067368,1303.028298300007,None,,,,,,,,,,,,,m,001,2021_Jul_07_1709,toilet,2021.1.3,99.80796946564436,
0,180,-4,4,1.0,,,,,3,0,3,0,0,43,43,17,,,,,,,,,,,,,,,,,,,,,,,1304.6293860000005,None,1304.6293860000005,None,1304.1290702999977,None,j,0.6108141000004252,1304.6293860000005,None,,,,,,,,,,,,,m,001,2021_Jul_07_1709,toilet,2021.1.3,99.80796946564436,
180,0,-4,4,0.97,,,,,3,0,3,0,0,44,44,44,,,,,,,,,,,,,,,,,,,,,,,1306.2504833999992,None,1306.2504833999992,None,1305.7501423000067,None,f,0.44561029999749735,1306.2504833999992,None,,,,,,,,,,,,,m,001,2021_Jul_07_1709,toilet,2021.1.3,99.80796946564436,
0,0,4,-4,1.15,,,,,3,0,3,0,0,45,45,13,,,,,,,,,,,,,,,,,,,,,,,1307.7115561999963,None,1307.7115561999963,None,1307.2111310000037,None,f,0.5046388999908231,1307.7115561999963,None,,,,,,,,,,,,,m,001,2021_Jul_07_1709,toilet,2021.1.3,99.80796946564436,
180,180,4,-4,1.15,,,,,3,0,3,0,0,46,46,41,,,,,,,,,,,,,,,,,,,,,,,1309.2325016999966,None,1309.2325016999966,None,1308.732200700004,None,f,0.4554145000001881,1309.2325016999966,None,,,,,,,,,,,,,m,001,2021_Jul_07_1709,toilet,2021.1.3,99.80796946564436,
180,180,4,-4,1.03,,,,,3,0,3,0,0,47,47,39,,,,,,,,,,,,,,,,,,,,,,,1310.693526700008,None,1310.693526700008,None,1310.1931575000053,None,f,0.5145525999978418,1310.693526700008,None,,,,,,,,,,,,,m,001,2021_Jul_07_1709,toilet,2021.1.3,99.80796946564436,
180,180,4,-4,0.85,,,,,3,0,3,0,0,48,48,35,,,,,,,,,,,,,,,,,,,,,,,1312.2245334000036,None,1312.2245334000036,None,1311.7241913000034,None,j,0.5035414000012679,1312.2245334000036,None,,,,,,,,,,,,,m,001,2021_Jul_07_1709,toilet,2021.1.3,99.80796946564436,
0,180,-4,4,0.85,,,,,3,0,3,0,0,49,49,14,,,,,,,,,,,,,,,,,,,,,,,1313.745564900004,None,1313.745564900004,None,1313.2452256999968,None,f,0.5984534000017447,1313.745564900004,None,,,,,,,,,,,,,m,001,2021_Jul_07_1709,toilet,2021.1.3,99.80796946564436,
