ori_st,ori_pr,xpos_st,xpos_pr,size,trials_3.thisRepN,trials_3.thisTrialN,trials_3.thisN,trials_3.thisIndex,trials_2.thisRepN,trials_2.thisTrialN,trials_2.thisN,trials_2.thisIndex,trials.thisRepN,trials.thisTrialN,trials.thisN,trials.thisIndex,wel_pra.started,wel_pra.stopped,resp_wel.keys,resp_wel.rt,resp_wel.started,resp_wel.stopped,standard_pra.started,standard_pra.stopped,prove_pra.started,prove_pra.stopped,fixation.started,fixation.stopped,resp_pra.keys,resp_pra.rt,resp_pra.started,resp_pra.stopped,instr.started,instr.stopped,key_resp_2.keys,key_resp_2.rt,key_resp_2.started,key_resp_2.stopped,standard.started,standard.stopped,probe.started,probe.stopped,text.started,text.stopped,resp.keys,resp.rt,resp.started,resp.stopped,text_2.started,text_2.stopped,key_resp.keys,key_resp.rt,key_resp.started,key_resp.stopped,participant,session,date,expName,psychopyVersion,frameRate,
,,,,,,,,,,,,,,,,,10.150167600018904,None,space,162.3220998001052,10.150167600018904,None,,,,,,,,,,,,,,,,,,,,,,,,,,,,,,,,,b,001,2021_Jun_30_1810,toilet,2021.1.3,99.89830358991625,
180,0,-4,4,1.15,0,0,0,15,,,,,,,,,,,,,,,173.50868050009012,None,173.50868050009012,None,173.00837920000777,None,j,82.40335959999356,173.50868050009012,None,,,,,,,,,,,,,,,,,,,,,,,b,001,2021_Jun_30_1810,toilet,2021.1.3,99.89830358991625,
0,180,4,-4,0.85,0,1,1,5,,,,,,,,,,,,,,,256.91527090000454,None,256.91527090000454,None,256.4148490000516,None,j,1.0449077000375837,256.91527090000454,None,,,,,,,,,,,,,,,,,,,,,,,b,001,2021_Jun_30_1810,toilet,2021.1.3,99.89830358991625,
0,180,4,-4,1.15,0,2,2,7,,,,,,,,,,,,,,,258.97659680002835,None,258.97659680002835,None,258.47625040006824,None,f,0.5994740999303758,258.97659680002835,None,,,,,,,,,,,,,,,,,,,,,,,b,001,2021_Jun_30_1810,toilet,2021.1.3,99.89830358991625,
0,180,-4,4,1.15,0,3,3,6,,,,,,,,,,,,,,,260.57767160004005,None,260.57767160004005,None,260.07733340002596,None,j,0.5503980999346823,260.57767160004005,None,,,,,,,,,,,,,,,,,,,,,,,b,001,2021_Jun_30_1810,toilet,2021.1.3,99.89830358991625,
180,180,-4,4,0.85,0,4,4,9,,,,,,,,,,,,,,,262.1287226000568,None,262.1287226000568,None,261.6283841000404,None,f,0.5352798999520019,262.1287226000568,None,,,,,,,,,,,,,,,,,,,,,,,b,001,2021_Jun_30_1810,toilet,2021.1.3,99.89830358991625,
180,180,-4,4,1.15,0,5,5,11,,,,,,,,,,,,,,,263.6697615000885,None,263.6697615000885,None,263.1694244000828,None,j,0.898332400014624,263.6697615000885,None,,,,,,,,,,,,,,,,,,,,,,,b,001,2021_Jun_30_1810,toilet,2021.1.3,99.89830358991625,
180,0,-4,4,1.15,0,6,6,14,,,,,,,,,,,,,,,265.5810602999991,None,265.5810602999991,None,265.08080970006995,None,j,0.9230102000292391,265.5810602999991,None,,,,,,,,,,,,,,,,,,,,,,,b,001,2021_Jun_30_1810,toilet,2021.1.3,99.89830358991625,
180,180,-4,4,0.85,0,7,7,8,,,,,,,,,,,,,,,267.51236749999225,None,267.51236749999225,None,267.0120285000885,None,f,0.5116614999715239,267.51236749999225,None,,,,,,,,,,,,,,,,,,,,,,,b,001,2021_Jun_30_1810,toilet,2021.1.3,99.89830358991625,
0,0,-4,4,0.85,0,8,8,0,,,,,,,,,,,,,,,269.0234031000873,None,269.0234031000873,None,268.52305400010664,None,f,0.6168264000443742,269.0234031000873,None,,,,,,,,,,,,,,,,,,,,,,,b,001,2021_Jun_30_1810,toilet,2021.1.3,99.89830358991625,
0,0,-4,4,1.15,0,9,9,2,,,,,,,,,,,,,,,270.6545044000959,None,270.6545044000959,None,270.1541553999996,None,j,0.505632899934426,270.6545044000959,None,,,,,,,,,,,,,,,,,,,,,,,b,001,2021_Jun_30_1810,toilet,2021.1.3,99.89830358991625,
180,0,-4,4,0.85,0,10,10,12,,,,,,,,,,,,,,,272.185536300065,None,272.185536300065,None,271.68529240007047,None,f,0.9425352000398561,272.185536300065,None,,,,,,,,,,,,,,,,,,,,,,,b,001,2021_Jun_30_1810,toilet,2021.1.3,99.89830358991625,
0,180,-4,4,0.85,0,11,11,4,,,,,,,,,,,,,,,274.14686020009685,None,274.14686020009685,None,273.64755230001174,None,f,1.2531394000397995,274.14686020009685,None,,,,,,,,,,,,,,,,,,,,,,,b,001,2021_Jun_30_1810,toilet,2021.1.3,99.89830358991625,
0,0,4,-4,1.15,0,12,12,3,,,,,,,,,,,,,,,276.4083886001026,None,276.4083886001026,None,275.90805040008854,None,f,0.6076883999630809,276.4083886001026,None,,,,,,,,,,,,,,,,,,,,,,,b,001,2021_Jun_30_1810,toilet,2021.1.3,99.89830358991625,
180,180,-4,4,1.15,0,13,13,10,,,,,,,,,,,,,,,278.0194860000629,None,278.0194860000629,None,277.51915160007775,None,j,0.4527101001003757,278.0194860000629,None,,,,,,,,,,,,,,,,,,,,,,,b,001,2021_Jun_30_1810,toilet,2021.1.3,99.89830358991625,
180,0,-4,4,0.85,0,14,14,13,,,,,,,,,,,,,,,279.50059320009314,None,279.50059320009314,None,279.00014550006017,None,f,0.635428800014779,279.50059320009314,None,,,,,,,,,,,,,,,,,,,,,,,b,001,2021_Jun_30_1810,toilet,2021.1.3,99.89830358991625,
0,0,4,-4,0.85,0,15,15,1,,,,,,,,,,,,,,,281.1516066000331,None,281.1516066000331,None,280.6512806999963,None,j,0.6645227000117302,281.1516066000331,None,,,,,,,,,,,,,,,,,,,,,,,b,001,2021_Jun_30_1810,toilet,2021.1.3,99.89830358991625,
180,180,-4,4,1.0,,,,,0,0,0,0,0,0,0,31,,,,,,,,,,,,,,,,,281.83206430007704,None,space,67.16788090008777,281.83206430007704,None,350.0285818000557,None,350.0285818000557,None,349.5279217000352,None,f,6.57172070001252,350.0285818000557,None,,,,,,,b,001,2021_Jun_30_1810,toilet,2021.1.3,99.89830358991625,
180,0,-4,4,0.97,,,,,0,0,0,0,0,1,1,44,,,,,,,,,,,,,,,,,,,,,,,357.6234037000686,None,357.6234037000686,None,357.1230645000469,None,f,5.744499400025234,357.6234037000686,None,,,,,,,b,001,2021_Jun_30_1810,toilet,2021.1.3,99.89830358991625,
0,180,4,-4,1.06,,,,,0,0,0,0,0,2,2,26,,,,,,,,,,,,,,,,,,,,,,,364.3679719000356,None,364.3679719000356,None,363.8676338000223,None,f,1.8639432999771088,364.3679719000356,None,,,,,,,b,001,2021_Jun_30_1810,toilet,2021.1.3,99.89830358991625,
180,180,4,-4,1.0,,,,,0,0,0,0,0,3,3,38,,,,,,,,,,,,,,,,,,,,,,,367.24001559999306,None,367.24001559999306,None,366.7395749000134,None,j,5.023960800026543,367.24001559999306,None,,,,,,,b,001,2021_Jun_30_1810,toilet,2021.1.3,99.89830358991625,
0,0,-4,4,0.97,,,,,0,0,0,0,0,4,4,2,,,,,,,,,,,,,,,,,,,,,,,373.26399600005243,None,373.26399600005243,None,372.7636569000315,None,f,5.576031899894588,373.26399600005243,None,,,,,,,b,001,2021_Jun_30_1810,toilet,2021.1.3,99.89830358991625,
180,180,4,-4,0.97,,,,,0,0,0,0,0,5,5,37,,,,,,,,,,,,,,,,,,,,,,,379.84845970000606,None,379.84845970000606,None,379.3481197000947,None,j,8.176031399983913,379.84845970000606,None,,,,,,,b,001,2021_Jun_30_1810,toilet,2021.1.3,99.89830358991625,
0,0,4,-4,0.97,,,,,0,0,0,0,0,6,6,9,,,,,,,,,,,,,,,,,,,,,,,389.0346756000072,None,389.0346756000072,None,388.5343438000418,None,j,4.4131887999828905,389.0346756000072,None,,,,,,,b,001,2021_Jun_30_1810,toilet,2021.1.3,99.89830358991625,
0,0,4,-4,1.06,,,,,0,0,0,0,0,7,7,12,,,,,,,,,,,,,,,,,,,,,,,394.44834590004757,None,394.44834590004757,None,393.9480102000525,None,f,2.071698799962178,394.44834590004757,None,,,,,,,b,001,2021_Jun_30_1810,toilet,2021.1.3,99.89830358991625,
180,180,4,-4,1.06,,,,,0,0,0,0,0,8,8,40,,,,,,,,,,,,,,,,,,,,,,,397.53043540008366,None,397.53043540008366,None,397.0301871000556,None,f,1.2294531000079587,397.53043540008366,None,,,,,,,b,001,2021_Jun_30_1810,toilet,2021.1.3,99.89830358991625,
0,180,4,-4,0.97,,,,,0,0,0,0,0,9,9,23,,,,,,,,,,,,,,,,,,,,,,,399.7719548000023,None,399.7719548000023,None,399.2716145000886,None,j,4.700241600046866,399.7719548000023,None,,,,,,,b,001,2021_Jun_30_1810,toilet,2021.1.3,99.89830358991625,
180,0,-4,4,0.94,,,,,0,0,0,0,0,10,10,43,,,,,,,,,,,,,,,,,,,,,,,405.49592990009114,None,405.49592990009114,None,404.9955709000351,None,f,2.3520726999267936,405.49592990009114,None,,,,,,,b,001,2021_Jun_30_1810,toilet,2021.1.3,99.89830358991625,
0,180,-4,4,1.03,,,,,0,0,0,0,0,11,11,18,,,,,,,,,,,,,,,,,,,,,,,408.8481023000786,None,408.8481023000786,None,408.34776580007747,None,j,1.7999006999889389,408.8481023000786,None,,,,,,,b,001,2021_Jun_30_1810,toilet,2021.1.3,99.89830358991625,
0,180,4,-4,0.85,,,,,0,0,0,0,0,12,12,21,,,,,,,,,,,,,,,,,,,,,,,411.66003120003734,None,411.66003120003734,None,411.1596675000619,None,j,0.9399168000090867,411.66003120003734,None,,,,,,,b,001,2021_Jun_30_1810,toilet,2021.1.3,99.89830358991625,
180,0,-4,4,1.03,,,,,0,0,0,0,0,13,13,46,,,,,,,,,,,,,,,,,,,,,,,413.6113261000719,None,413.6113261000719,None,413.11108200007584,None,j,3.884721700102091,413.6113261000719,None,,,,,,,b,001,2021_Jun_30_1810,toilet,2021.1.3,99.89830358991625,
180,0,-4,4,0.85,,,,,0,0,0,0,0,14,14,42,,,,,,,,,,,,,,,,,,,,,,,418.5146476000082,None,418.5146476000082,None,418.01430690009147,None,f,0.8373252999735996,418.5146476000082,None,,,,,,,b,001,2021_Jun_30_1810,toilet,2021.1.3,99.89830358991625,
180,0,4,-4,1.15,,,,,0,0,0,0,0,15,15,55,,,,,,,,,,,,,,,,,,,,,,,420.3559324000962,None,420.3559324000962,None,419.85565600008704,None,f,0.803959499928169,420.3559324000962,None,,,,,,,b,001,2021_Jun_30_1810,toilet,2021.1.3,99.89830358991625,
0,180,4,-4,1.15,,,,,0,0,0,0,0,16,16,27,,,,,,,,,,,,,,,,,,,,,,,422.1671253000386,None,422.1671253000386,None,421.6668008000124,None,f,0.7687694999622181,422.1671253000386,None,,,,,,,b,001,2021_Jun_30_1810,toilet,2021.1.3,99.89830358991625,
0,180,-4,4,0.94,,,,,0,0,0,0,0,17,17,15,,,,,,,,,,,,,,,,,,,,,,,423.9383253999986,None,423.9383253999986,None,423.43800290010404,None,f,5.589546500006691,423.9383253999986,None,,,,,,,b,001,2021_Jun_30_1810,toilet,2021.1.3,99.89830358991625,
0,0,4,-4,1.0,,,,,0,0,0,0,0,18,18,10,,,,,,,,,,,,,,,,,,,,,,,430.53275210002903,None,430.53275210002903,None,430.0324518000707,None,j,12.691160599933937,430.53275210002903,None,,,,,,,b,001,2021_Jun_30_1810,toilet,2021.1.3,99.89830358991625,
0,0,-4,4,1.06,,,,,0,0,0,0,0,19,19,5,,,,,,,,,,,,,,,,,,,,,,,444.23207090003416,None,444.23207090003416,None,443.7317381000612,None,j,2.3679173999698833,444.23207090003416,None,,,,,,,b,001,2021_Jun_30_1810,toilet,2021.1.3,99.89830358991625,
180,0,4,-4,0.94,,,,,0,0,0,0,0,20,20,50,,,,,,,,,,,,,,,,,,,,,,,447.6143578001065,None,447.6143578001065,None,447.11402570002247,None,j,1.545630499953404,447.6143578001065,None,,,,,,,b,001,2021_Jun_30_1810,toilet,2021.1.3,99.89830358991625,
180,180,4,-4,0.85,,,,,0,0,0,0,0,21,21,35,,,,,,,,,,,,,,,,,,,,,,,450.1761779000517,None,450.1761779000517,None,449.67575829999987,None,j,0.855640499969013,450.1761779000517,None,,,,,,,b,001,2021_Jun_30_1810,toilet,2021.1.3,99.89830358991625,
180,180,-4,4,1.06,,,,,0,0,0,0,0,22,22,33,,,,,,,,,,,,,,,,,,,,,,,452.03735530003905,None,452.03735530003905,None,451.536978200078,None,j,1.538593199918978,452.03735530003905,None,,,,,,,b,001,2021_Jun_30_1810,toilet,2021.1.3,99.89830358991625,
0,0,4,-4,0.94,,,,,0,0,0,0,0,23,23,8,,,,,,,,,,,,,,,,,,,,,,,454.58908090007026,None,454.58908090007026,None,454.08875330002047,None,j,1.0188156000804156,454.58908090007026,None,,,,,,,b,001,2021_Jun_30_1810,toilet,2021.1.3,99.89830358991625,
180,180,-4,4,0.94,,,,,0,0,0,0,0,24,24,29,,,,,,,,,,,,,,,,,,,,,,,456.6205479000928,None,456.6205479000928,None,456.1201605000533,None,f,3.451256300089881,456.6205479000928,None,,,,,,,b,001,2021_Jun_30_1810,toilet,2021.1.3,99.89830358991625,
0,180,-4,4,0.85,,,,,0,0,0,0,0,25,25,14,,,,,,,,,,,,,,,,,,,,,,,461.073480400024,None,461.073480400024,None,460.57314160000533,None,f,0.9664885000092909,461.073480400024,None,,,,,,,b,001,2021_Jun_30_1810,toilet,2021.1.3,99.89830358991625,
180,0,4,-4,0.97,,,,,0,0,0,0,0,26,26,51,,,,,,,,,,,,,,,,,,,,,,,463.0648270000238,None,463.0648270000238,None,462.5644886000082,None,j,3.1829230999574065,463.0648270000238,None,,,,,,,b,001,2021_Jun_30_1810,toilet,2021.1.3,99.89830358991625,
0,0,4,-4,0.85,,,,,0,0,0,0,0,27,27,7,,,,,,,,,,,,,,,,,,,,,,,467.2476585000986,None,467.2476585000986,None,466.7473202000838,None,j,0.7281269000377506,467.2476585000986,None,,,,,,,b,001,2021_Jun_30_1810,toilet,2021.1.3,99.89830358991625,
180,0,-4,4,1.06,,,,,0,0,0,0,0,28,28,47,,,,,,,,,,,,,,,,,,,,,,,468.9888385999948,None,468.9888385999948,None,468.4885033000028,None,j,3.259015899966471,468.9888385999948,None,,,,,,,b,001,2021_Jun_30_1810,toilet,2021.1.3,99.89830358991625,
180,180,-4,4,1.03,,,,,0,0,0,0,0,29,29,32,,,,,,,,,,,,,,,,,,,,,,,473.251733000041,None,473.251733000041,None,472.7514016000787,None,j,2.54824589996133,473.251733000041,None,,,,,,,b,001,2021_Jun_30_1810,toilet,2021.1.3,99.89830358991625,
0,0,-4,4,1.03,,,,,0,0,0,0,0,30,30,4,,,,,,,,,,,,,,,,,,,,,,,476.8141528000124,None,476.8141528000124,None,476.3137992999982,None,j,2.122029099962674,476.8141528000124,None,,,,,,,b,001,2021_Jun_30_1810,toilet,2021.1.3,99.89830358991625,
0,0,-4,4,0.94,,,,,0,0,0,0,0,31,31,1,,,,,,,,,,,,,,,,,,,,,,,479.93625650007743,None,479.93625650007743,None,479.44602050003596,None,f,1.9755569000262767,479.93625650007743,None,,,,,,,b,001,2021_Jun_30_1810,toilet,2021.1.3,99.89830358991625,
180,0,4,-4,1.03,,,,,0,0,0,0,0,32,32,53,,,,,,,,,,,,,,,,,,,,,,,482.91827580006793,None,482.91827580006793,None,482.4179387000622,None,f,5.585576400044374,482.91827580006793,None,,,,,,,b,001,2021_Jun_30_1810,toilet,2021.1.3,99.89830358991625,
0,180,4,-4,1.03,,,,,0,0,0,0,0,33,33,25,,,,,,,,,,,,,,,,,,,,,,,489.512742800056,None,489.512742800056,None,489.01240170001984,None,f,1.9669890999794006,489.512742800056,None,,,,,,,b,001,2021_Jun_30_1810,toilet,2021.1.3,99.89830358991625,
180,180,4,-4,1.15,,,,,0,0,0,0,0,34,34,41,,,,,,,,,,,,,,,,,,,,,,,492.4848516000202,None,492.4848516000202,None,491.98441370006185,None,f,1.1390058000106364,492.4848516000202,None,,,,,,,b,001,2021_Jun_30_1810,toilet,2021.1.3,99.89830358991625,
180,0,4,-4,0.85,,,,,0,0,0,0,0,35,35,49,,,,,,,,,,,,,,,,,,,,,,,494.636249500094,None,494.636249500094,None,494.1358727000188,None,j,0.7955428999848664,494.636249500094,None,,,,,,,b,001,2021_Jun_30_1810,toilet,2021.1.3,99.89830358991625,
0,180,-4,4,1.15,,,,,0,0,0,0,0,36,36,20,,,,,,,,,,,,,,,,,,,,,,,496.43743980000727,None,496.43743980000727,None,495.93709110002965,None,j,0.8665322000160813,496.43743980000727,None,,,,,,,b,001,2021_Jun_30_1810,toilet,2021.1.3,99.89830358991625,
0,180,-4,4,0.97,,,,,0,0,0,0,0,37,37,16,,,,,,,,,,,,,,,,,,,,,,,498.31870880001225,None,498.31870880001225,None,497.81837480003014,None,f,6.1531649000244215,498.31870880001225,None,,,,,,,b,001,2021_Jun_30_1810,toilet,2021.1.3,99.89830358991625,
180,180,4,-4,0.94,,,,,0,0,0,0,0,38,38,36,,,,,,,,,,,,,,,,,,,,,,,505.4835638999939,None,505.4835638999939,None,504.9832198000513,None,j,0.8283375999890268,505.4835638999939,None,,,,,,,b,001,2021_Jun_30_1810,toilet,2021.1.3,99.89830358991625,
0,0,4,-4,1.03,,,,,0,0,0,0,0,39,39,11,,,,,,,,,,,,,,,,,,,,,,,507.32481760007795,None,507.32481760007795,None,506.8244759000372,None,f,0.7469065000768751,507.32481760007795,None,,,,,,,b,001,2021_Jun_30_1810,toilet,2021.1.3,99.89830358991625,
180,0,-4,4,1.0,,,,,0,0,0,0,0,40,40,45,,,,,,,,,,,,,,,,,,,,,,,509.076042800094,None,509.076042800094,None,508.5756692000432,None,f,6.179694299935363,509.076042800094,None,,,,,,,b,001,2021_Jun_30_1810,toilet,2021.1.3,99.89830358991625,
0,180,4,-4,0.94,,,,,0,0,0,0,0,41,41,22,,,,,,,,,,,,,,,,,,,,,,,516.2609424000839,None,516.2609424000839,None,515.7605569000589,None,j,0.8347648999188095,516.2609424000839,None,,,,,,,b,001,2021_Jun_30_1810,toilet,2021.1.3,99.89830358991625,
0,0,-4,4,1.15,,,,,0,0,0,0,0,42,42,6,,,,,,,,,,,,,,,,,,,,,,,518.1021086000837,None,518.1021086000837,None,517.6017697000643,None,j,0.7376697000581771,518.1021086000837,None,,,,,,,b,001,2021_Jun_30_1810,toilet,2021.1.3,99.89830358991625,
0,180,-4,4,1.06,,,,,0,0,0,0,0,43,43,19,,,,,,,,,,,,,,,,,,,,,,,519.8432854000712,None,519.8432854000712,None,519.3429504000815,None,j,1.39661400008481,519.8432854000712,None,,,,,,,b,001,2021_Jun_30_1810,toilet,2021.1.3,99.89830358991625,
180,0,-4,4,1.15,,,,,0,0,0,0,0,44,44,48,,,,,,,,,,,,,,,,,,,,,,,522.2449967000866,None,522.2449967000866,None,521.7445771000348,None,j,0.6747228999156505,522.2449967000866,None,,,,,,,b,001,2021_Jun_30_1810,toilet,2021.1.3,99.89830358991625,
180,180,-4,4,0.97,,,,,0,0,0,0,0,45,45,30,,,,,,,,,,,,,,,,,,,,,,,523.9261332000606,None,523.9261332000606,None,523.4257879999932,None,f,2.2419854999752715,523.9261332000606,None,,,,,,,b,001,2021_Jun_30_1810,toilet,2021.1.3,99.89830358991625,
0,180,-4,4,1.0,,,,,0,0,0,0,0,46,46,17,,,,,,,,,,,,,,,,,,,,,,,527.1782566000475,None,527.1782566000475,None,526.6779204000486,None,j,6.20573239994701,527.1782566000475,None,,,,,,,b,001,2021_Jun_30_1810,toilet,2021.1.3,99.89830358991625,
0,0,4,-4,1.15,,,,,0,0,0,0,0,47,47,13,,,,,,,,,,,,,,,,,,,,,,,534.3931440000888,None,534.3931440000888,None,533.8928045000648,None,f,0.7346553000388667,534.3931440000888,None,,,,,,,b,001,2021_Jun_30_1810,toilet,2021.1.3,99.89830358991625,
180,0,4,-4,1.0,,,,,0,0,0,0,0,48,48,52,,,,,,,,,,,,,,,,,,,,,,,536.1343252999941,None,536.1343252999941,None,535.6339841000736,None,j,9.169579199980944,536.1343252999941,None,,,,,,,b,001,2021_Jun_30_1810,toilet,2021.1.3,99.89830358991625,
0,0,-4,4,1.0,,,,,0,0,0,0,0,49,49,3,,,,,,,,,,,,,,,,,,,,,,,546.321223200066,None,546.321223200066,None,545.8209205000894,None,f,0.8226026000920683,546.321223200066,None,,,,,,,b,001,2021_Jun_30_1810,toilet,2021.1.3,99.89830358991625,
180,180,4,-4,1.03,,,,,0,0,0,0,0,50,50,39,,,,,,,,,,,,,,,,,,,,,,,548.1524620000273,None,548.1524620000273,None,547.6521269000368,None,f,1.5354297999292612,548.1524620000273,None,,,,,,,b,001,2021_Jun_30_1810,toilet,2021.1.3,99.89830358991625,
180,0,4,-4,1.06,,,,,0,0,0,0,0,51,51,54,,,,,,,,,,,,,,,,,,,,,,,550.7141977000283,None,550.7141977000283,None,550.2138573999982,None,f,4.3655520000029355,550.7141977000283,None,,,,,,,b,001,2021_Jun_30_1810,toilet,2021.1.3,99.89830358991625,
180,180,-4,4,1.15,,,,,0,0,0,0,0,52,52,34,,,,,,,,,,,,,,,,,,,,,,,556.0878390000435,None,556.0878390000435,None,555.5874979000073,None,j,0.7680150999221951,556.0878390000435,None,,,,,,,b,001,2021_Jun_30_1810,toilet,2021.1.3,99.89830358991625,
0,0,-4,4,0.85,,,,,0,0,0,0,0,53,53,0,,,,,,,,,,,,,,,,,,,,,,,557.8690506001003,None,557.8690506001003,None,557.3687029000139,None,f,0.7628616000292823,557.8690506001003,None,,,,,,,b,001,2021_Jun_30_1810,toilet,2021.1.3,99.89830358991625,
180,180,-4,4,0.85,,,,,0,0,0,0,0,54,54,28,,,,,,,,,,,,,,,,,,,,,,,559.6603482000064,None,559.6603482000064,None,559.1599167000968,None,f,0.6514292000792921,559.6603482000064,None,,,,,,,b,001,2021_Jun_30_1810,toilet,2021.1.3,99.89830358991625,
0,180,4,-4,1.0,,,,,0,0,0,0,0,55,55,24,,,,,,,,,,,,,,,,,,,,,,,561.3213849000167,None,561.3213849000167,None,560.821058300091,None,j,7.966394599992782,561.3213849000167,None,,,,,,,b,001,2021_Jun_30_1810,toilet,2021.1.3,99.89830358991625,
0,0,-4,4,0.94,,,,,0,0,0,0,1,0,56,1,,,,,,,,,,,,,,,,,,,,,,,570.2874551001005,None,570.2874551001005,None,569.7871190001024,None,f,0.8723207999719307,570.2874551001005,None,,,,,,,b,001,2021_Jun_30_1810,toilet,2021.1.3,99.89830358991625,
0,180,4,-4,0.97,,,,,0,0,0,0,1,1,57,23,,,,,,,,,,,,,,,,,,,,,,,572.1687292000279,None,572.1687292000279,None,571.6683913000161,None,j,12.414942699950188,572.1687292000279,None,,,,,,,b,001,2021_Jun_30_1810,toilet,2021.1.3,99.89830358991625,
180,0,-4,4,1.06,,,,,0,0,0,0,1,2,58,47,,,,,,,,,,,,,,,,,,,,,,,585.5878225000342,None,585.5878225000342,None,585.0874893000582,None,j,1.7640733999432996,585.5878225000342,None,,,,,,,b,001,2021_Jun_30_1810,toilet,2021.1.3,99.89830358991625,
0,0,4,-4,1.03,,,,,0,0,0,0,1,3,59,11,,,,,,,,,,,,,,,,,,,,,,,588.379809300066,None,588.379809300066,None,587.879378600046,None,f,0.9560223999433219,588.379809300066,None,,,,,,,b,001,2021_Jun_30_1810,toilet,2021.1.3,99.89830358991625,
180,180,-4,4,0.97,,,,,0,0,0,0,1,4,60,30,,,,,,,,,,,,,,,,,,,,,,,590.3510651000543,None,590.3510651000543,None,589.8508040000452,None,f,1.368608899996616,590.3510651000543,None,,,,,,,b,001,2021_Jun_30_1810,toilet,2021.1.3,99.89830358991625,
0,180,4,-4,1.06,,,,,0,0,0,0,1,5,61,26,,,,,,,,,,,,,,,,,,,,,,,592.7226522000274,None,592.7226522000274,None,592.2223171000369,None,f,2.1651978999143466,592.7226522000274,None,,,,,,,b,001,2021_Jun_30_1810,toilet,2021.1.3,99.89830358991625,
0,0,-4,4,1.0,,,,,0,0,0,0,1,6,62,3,,,,,,,,,,,,,,,,,,,,,,,595.8948437999934,None,595.8948437999934,None,595.4044796000235,None,f,1.8567943999078125,595.8948437999934,None,,,,,,,b,001,2021_Jun_30_1810,toilet,2021.1.3,99.89830358991625,
0,180,4,-4,0.85,,,,,0,0,0,0,1,7,63,21,,,,,,,,,,,,,,,,,,,,,,,598.7567405001028,None,598.7567405001028,None,598.2563998000696,None,j,0.5949107999913394,598.7567405001028,None,,,,,,,b,001,2021_Jun_30_1810,toilet,2021.1.3,99.89830358991625,
180,180,-4,4,0.85,,,,,0,0,0,0,1,8,64,28,,,,,,,,,,,,,,,,,,,,,,,600.3578246000689,None,600.3578246000689,None,599.8574828000274,None,f,0.657998500042595,600.3578246000689,None,,,,,,,b,001,2021_Jun_30_1810,toilet,2021.1.3,99.89830358991625,
0,0,-4,4,1.15,,,,,0,0,0,0,1,9,65,6,,,,,,,,,,,,,,,,,,,,,,,602.0289591000183,None,602.0289591000183,None,601.5286243000301,None,j,0.5067401999840513,602.0289591000183,None,,,,,,,b,001,2021_Jun_30_1810,toilet,2021.1.3,99.89830358991625,
180,0,4,-4,1.15,,,,,0,0,0,0,1,10,66,55,,,,,,,,,,,,,,,,,,,,,,,603.5399793999968,None,603.5399793999968,None,603.0397342999931,None,f,0.5797299999976531,603.5399793999968,None,,,,,,,b,001,2021_Jun_30_1810,toilet,2021.1.3,99.89830358991625,
0,180,4,-4,1.03,,,,,0,0,0,0,1,11,67,25,,,,,,,,,,,,,,,,,,,,,,,605.1310753000434,None,605.1310753000434,None,604.6307256000582,None,j,1.2925505000166595,605.1310753000434,None,,,,,,,b,001,2021_Jun_30_1810,toilet,2021.1.3,99.89830358991625,
180,180,-4,4,1.0,,,,,0,0,0,0,1,12,68,31,,,,,,,,,,,,,,,,,,,,,,,607.432618000079,None,607.432618000079,None,606.9322824000847,None,j,3.551186400000006,607.432618000079,None,,,,,,,b,001,2021_Jun_30_1810,toilet,2021.1.3,99.89830358991625,
0,180,-4,4,1.03,,,,,0,0,0,0,1,13,69,18,,,,,,,,,,,,,,,,,,,,,,,611.9957998000318,None,611.9957998000318,None,611.4953666999936,None,j,3.8839928000234067,611.9957998000318,None,,,,,,,b,001,2021_Jun_30_1810,toilet,2021.1.3,99.89830358991625,
0,0,4,-4,0.97,,,,,0,0,0,0,1,14,70,9,,,,,,,,,,,,,,,,,,,,,,,616.8990292000817,None,616.8990292000817,None,616.3986877000425,None,f,6.580767199979164,616.8990292000817,None,,,,,,,b,001,2021_Jun_30_1810,toilet,2021.1.3,99.89830358991625,
180,180,4,-4,1.03,,,,,0,0,0,0,1,15,71,39,,,,,,,,,,,,,,,,,,,,,,,624.4941727000987,None,624.4941727000987,None,623.9938375001075,None,f,2.681540200021118,624.4941727000987,None,,,,,,,b,001,2021_Jun_30_1810,toilet,2021.1.3,99.89830358991625,
180,180,-4,4,1.15,,,,,0,0,0,0,1,16,72,34,,,,,,,,,,,,,,,,,,,,,,,628.176668100059,None,628.176668100059,None,627.6763228999916,None,j,0.7749477000907063,628.176668100059,None,,,,,,,b,001,2021_Jun_30_1810,toilet,2021.1.3,99.89830358991625,
0,180,-4,4,0.97,,,,,0,0,0,0,1,17,73,16,,,,,,,,,,,,,,,,,,,,,,,629.9578736000694,None,629.9578736000694,None,629.4585625000764,None,f,1.7458980000810698,629.9578736000694,None,,,,,,,b,001,2021_Jun_30_1810,toilet,2021.1.3,99.89830358991625,
180,0,-4,4,0.97,,,,,0,0,0,0,1,18,74,44,,,,,,,,,,,,,,,,,,,,,,,632.7098138000583,None,632.7098138000583,None,632.2093947000103,None,f,3.329825400025584,632.7098138000583,None,,,,,,,b,001,2021_Jun_30_1810,toilet,2021.1.3,99.89830358991625,
0,180,-4,4,1.06,,,,,0,0,0,0,1,19,75,19,,,,,,,,,,,,,,,,,,,,,,,637.0426908000372,None,637.0426908000372,None,636.5423349000048,None,j,3.1409236000617966,637.0426908000372,None,,,,,,,b,001,2021_Jun_30_1810,toilet,2021.1.3,99.89830358991625,
0,0,4,-4,0.94,,,,,0,0,0,0,1,20,76,8,,,,,,,,,,,,,,,,,,,,,,,641.1855164000299,None,641.1855164000299,None,640.6852208999917,None,j,1.494133000029251,641.1855164000299,None,,,,,,,b,001,2021_Jun_30_1810,toilet,2021.1.3,99.89830358991625,
0,0,-4,4,1.06,,,,,0,0,0,0,1,21,77,5,,,,,,,,,,,,,,,,,,,,,,,643.6871722000651,None,643.6871722000651,None,643.1868305000244,None,j,1.088642799993977,643.6871722000651,None,,,,,,,b,001,2021_Jun_30_1810,toilet,2021.1.3,99.89830358991625,
180,0,4,-4,0.97,,,,,0,0,0,0,1,22,78,51,,,,,,,,,,,,,,,,,,,,,,,645.788602600107,None,645.788602600107,None,645.2882537000114,None,j,0.9231723999837413,645.788602600107,None,,,,,,,b,001,2021_Jun_30_1810,toilet,2021.1.3,99.89830358991625,
180,180,4,-4,1.06,,,,,0,0,0,0,1,23,79,40,,,,,,,,,,,,,,,,,,,,,,,647.7399191000732,None,647.7399191000732,None,647.2396456000861,None,f,4.187722200062126,647.7399191000732,None,,,,,,,b,001,2021_Jun_30_1810,toilet,2021.1.3,99.89830358991625,
0,180,-4,4,0.94,,,,,0,0,0,0,1,24,80,15,,,,,,,,,,,,,,,,,,,,,,,652.9334328999976,None,652.9334328999976,None,652.43309340009,None,f,3.122205200023018,652.9334328999976,None,,,,,,,b,001,2021_Jun_30_1810,toilet,2021.1.3,99.89830358991625,
0,0,4,-4,1.0,,,,,0,0,0,0,1,25,81,10,,,,,,,,,,,,,,,,,,,,,,,657.0562490000157,None,657.0562490000157,None,656.5558933001012,None,f,2.1193401999771595,657.0562490000157,None,,,,,,,b,001,2021_Jun_30_1810,toilet,2021.1.3,99.89830358991625,
0,0,-4,4,0.85,,,,,0,0,0,0,1,26,82,0,,,,,,,,,,,,,,,,,,,,,,,660.1783409999916,None,660.1783409999916,None,659.6780040001031,None,f,0.6934753999812528,660.1783409999916,None,,,,,,,b,001,2021_Jun_30_1810,toilet,2021.1.3,99.89830358991625,
180,180,4,-4,1.15,,,,,0,0,0,0,1,27,83,41,,,,,,,,,,,,,,,,,,,,,,,661.899577000062,None,661.899577000062,None,661.3991675000871,None,f,0.6522172999102622,661.899577000062,None,,,,,,,b,001,2021_Jun_30_1810,toilet,2021.1.3,99.89830358991625,
180,180,4,-4,0.94,,,,,0,0,0,0,1,28,84,36,,,,,,,,,,,,,,,,,,,,,,,663.5706787999952,None,663.5706787999952,None,663.0703158000251,None,j,0.8848949999082834,663.5706787999952,None,,,,,,,b,001,2021_Jun_30_1810,toilet,2021.1.3,99.89830358991625,
180,0,4,-4,1.03,,,,,0,0,0,0,1,29,85,53,,,,,,,,,,,,,,,,,,,,,,,665.4619224000489,None,665.4619224000489,None,664.9615773000987,None,f,2.2258401999715716,665.4619224000489,None,,,,,,,b,001,2021_Jun_30_1810,toilet,2021.1.3,99.89830358991625,
0,0,4,-4,1.06,,,,,0,0,0,0,1,30,86,12,,,,,,,,,,,,,,,,,,,,,,,668.7141235000454,None,668.7141235000454,None,668.2137845000252,None,f,0.9094860999612138,668.7141235000454,None,,,,,,,b,001,2021_Jun_30_1810,toilet,2021.1.3,99.89830358991625,
180,180,-4,4,0.94,,,,,0,0,0,0,1,31,87,29,,,,,,,,,,,,,,,,,,,,,,,670.6254980000667,None,670.6254980000667,None,670.1251551000169,None,f,1.1260767999337986,670.6254980000667,None,,,,,,,b,001,2021_Jun_30_1810,toilet,2021.1.3,99.89830358991625,
180,0,4,-4,0.85,,,,,0,0,0,0,1,32,88,49,,,,,,,,,,,,,,,,,,,,,,,672.756863100105,None,672.756863100105,None,672.2565197000513,None,j,1.2189588999608532,672.756863100105,None,,,,,,,b,001,2021_Jun_30_1810,toilet,2021.1.3,99.89830358991625,
0,180,4,-4,1.15,,,,,0,0,0,0,1,33,89,27,,,,,,,,,,,,,,,,,,,,,,,674.9883725000545,None,674.9883725000545,None,674.4880277001066,None,f,0.7793907000450417,674.9883725000545,None,,,,,,,b,001,2021_Jun_30_1810,toilet,2021.1.3,99.89830358991625,
180,0,-4,4,1.15,,,,,0,0,0,0,1,34,90,48,,,,,,,,,,,,,,,,,,,,,,,676.7796032000333,None,676.7796032000333,None,676.279246799997,None,j,0.6361428999807686,676.7796032000333,None,,,,,,,b,001,2021_Jun_30_1810,toilet,2021.1.3,99.89830358991625,
180,0,4,-4,1.0,,,,,0,0,0,0,1,35,91,52,,,,,,,,,,,,,,,,,,,,,,,678.4307070000796,None,678.4307070000796,None,677.9304374000058,None,j,2.521088400040753,678.4307070000796,None,,,,,,,b,001,2021_Jun_30_1810,toilet,2021.1.3,99.89830358991625,
0,180,-4,4,1.0,,,,,0,0,0,0,1,36,92,17,,,,,,,,,,,,,,,,,,,,,,,681.9631070001051,None,681.9631070001051,None,681.4627556001069,None,f,2.524653200060129,681.9631070001051,None,,,,,,,b,001,2021_Jun_30_1810,toilet,2021.1.3,99.89830358991625,
0,0,-4,4,1.03,,,,,0,0,0,0,1,37,93,4,,,,,,,,,,,,,,,,,,,,,,,685.5155034000054,None,685.5155034000054,None,685.0152375000762,None,j,1.4680190000217408,685.5155034000054,None,,,,,,,b,001,2021_Jun_30_1810,toilet,2021.1.3,99.89830358991625,
0,0,4,-4,0.85,,,,,0,0,0,0,1,38,94,7,,,,,,,,,,,,,,,,,,,,,,,687.9871800000547,None,687.9871800000547,None,687.4868388000177,None,j,0.8045686999103054,687.9871800000547,None,,,,,,,b,001,2021_Jun_30_1810,toilet,2021.1.3,99.89830358991625,
180,180,4,-4,0.97,,,,,0,0,0,0,1,39,95,37,,,,,,,,,,,,,,,,,,,,,,,689.8184151001042,None,689.8184151001042,None,689.3180771000916,None,j,0.8775322999572381,689.8184151001042,None,,,,,,,b,001,2021_Jun_30_1810,toilet,2021.1.3,99.89830358991625,
180,0,-4,4,1.0,,,,,0,0,0,0,1,40,96,45,,,,,,,,,,,,,,,,,,,,,,,691.7096966000972,None,691.7096966000972,None,691.2093600000953,None,j,2.3458898999961093,691.7096966000972,None,,,,,,,b,001,2021_Jun_30_1810,toilet,2021.1.3,99.89830358991625,
0,0,-4,4,0.97,,,,,0,0,0,0,1,41,97,2,,,,,,,,,,,,,,,,,,,,,,,695.0619685000274,None,695.0619685000274,None,694.5616357000545,None,f,0.9616719000041485,695.0619685000274,None,,,,,,,b,001,2021_Jun_30_1810,toilet,2021.1.3,99.89830358991625,
180,180,4,-4,0.85,,,,,0,0,0,0,1,42,98,35,,,,,,,,,,,,,,,,,,,,,,,697.0433083000826,None,697.0433083000826,None,696.5429676000495,None,j,0.6442337000044063,697.0433083000826,None,,,,,,,b,001,2021_Jun_30_1810,toilet,2021.1.3,99.89830358991625,
0,0,4,-4,1.15,,,,,0,0,0,0,1,43,99,13,,,,,,,,,,,,,,,,,,,,,,,698.6945176000008,None,698.6945176000008,None,698.1940890999977,None,f,0.6411670000525191,698.6945176000008,None,,,,,,,b,001,2021_Jun_30_1810,toilet,2021.1.3,99.89830358991625,
0,180,4,-4,0.94,,,,,0,0,0,0,1,44,100,22,,,,,,,,,,,,,,,,,,,,,,,700.3455549000064,None,700.3455549000064,None,699.8452812000178,None,j,1.2460118000162765,700.3455549000064,None,,,,,,,b,001,2021_Jun_30_1810,toilet,2021.1.3,99.89830358991625,
0,180,4,-4,1.0,,,,,0,0,0,0,1,45,101,24,,,,,,,,,,,,,,,,,,,,,,,702.5970669999951,None,702.5970669999951,None,702.0967311999993,None,j,4.594512999989092,702.5970669999951,None,,,,,,,b,001,2021_Jun_30_1810,toilet,2021.1.3,99.89830358991625,
180,180,4,-4,1.0,,,,,0,0,0,0,1,46,102,38,,,,,,,,,,,,,,,,,,,,,,,708.190899200039,None,708.190899200039,None,707.6906047000084,None,j,1.9766687999945134,708.190899200039,None,,,,,,,b,001,2021_Jun_30_1810,toilet,2021.1.3,99.89830358991625,
180,0,-4,4,1.03,,,,,0,0,0,0,1,47,103,46,,,,,,,,,,,,,,,,,,,,,,,711.1728779000696,None,711.1728779000696,None,710.6725470999954,None,j,2.7386538001010194,711.1728779000696,None,,,,,,,b,001,2021_Jun_30_1810,toilet,2021.1.3,99.89830358991625,
180,0,4,-4,1.06,,,,,0,0,0,0,1,48,104,54,,,,,,,,,,,,,,,,,,,,,,,714.9155026000226,None,714.9155026000226,None,714.4151591000846,None,f,3.1560220000101253,714.9155026000226,None,,,,,,,b,001,2021_Jun_30_1810,toilet,2021.1.3,99.89830358991625,
180,0,-4,4,0.85,,,,,0,0,0,0,1,49,105,42,,,,,,,,,,,,,,,,,,,,,,,719.0782342000166,None,719.0782342000166,None,718.5779032000573,None,f,0.9773250999860466,719.0782342000166,None,,,,,,,b,001,2021_Jun_30_1810,toilet,2021.1.3,99.89830358991625,
180,0,4,-4,0.94,,,,,0,0,0,0,1,50,106,50,,,,,,,,,,,,,,,,,,,,,,,721.0596527000889,None,721.0596527000889,None,720.5592343000462,None,j,0.8199535000603646,721.0596527000889,None,,,,,,,b,001,2021_Jun_30_1810,toilet,2021.1.3,99.89830358991625,
0,180,-4,4,0.85,,,,,0,0,0,0,1,51,107,14,,,,,,,,,,,,,,,,,,,,,,,722.890824800008,None,722.890824800008,None,722.3905118000694,None,f,0.7647143999347463,722.890824800008,None,,,,,,,b,001,2021_Jun_30_1810,toilet,2021.1.3,99.89830358991625,
0,180,-4,4,1.15,,,,,0,0,0,0,1,52,108,20,,,,,,,,,,,,,,,,,,,,,,,724.6620378000662,None,724.6620378000662,None,724.1616769999964,None,j,0.7378658000379801,724.6620378000662,None,,,,,,,b,001,2021_Jun_30_1810,toilet,2021.1.3,99.89830358991625,
180,180,-4,4,1.03,,,,,0,0,0,0,1,53,109,32,,,,,,,,,,,,,,,,,,,,,,,726.4131985000568,None,726.4131985000568,None,725.9128643000731,None,j,1.114491300075315,726.4131985000568,None,,,,,,,b,001,2021_Jun_30_1810,toilet,2021.1.3,99.89830358991625,
180,180,-4,4,1.06,,,,,0,0,0,0,1,54,110,33,,,,,,,,,,,,,,,,,,,,,,,728.5447371000191,None,728.5447371000191,None,728.0443058999954,None,j,1.510895499959588,728.5447371000191,None,,,,,,,b,001,2021_Jun_30_1810,toilet,2021.1.3,99.89830358991625,
180,0,-4,4,0.94,,,,,0,0,0,0,1,55,111,43,,,,,,,,,,,,,,,,,,,,,,,731.0663486000849,None,731.0663486000849,None,730.5660140000982,None,f,1.2772045000456274,731.0663486000849,None,,,,,,,b,001,2021_Jun_30_1810,toilet,2021.1.3,99.89830358991625,
,,,,,,,,,0,0,0,0,,,,,,,,,,,,,,,,,,,,,,,,,,,,,,,,,,,,,732.357223500032,None,space,10.066456599975936,732.357223500032,None,b,001,2021_Jun_30_1810,toilet,2021.1.3,99.89830358991625,
180,180,4,-4,0.97,,,,,1,0,1,0,0,0,0,37,,,,,,,,,,,,,,,,,742.4441091000335,None,space,1.7716517000226304,742.4441091000335,None,745.225967300008,None,745.225967300008,None,744.725683900062,None,j,2.1576916000340134,745.225967300008,None,,,,,,,b,001,2021_Jun_30_1810,toilet,2021.1.3,99.89830358991625,
0,0,4,-4,0.85,,,,,1,0,1,0,0,1,1,7,,,,,,,,,,,,,,,,,,,,,,,748.4080985001056,None,748.4080985001056,None,747.9077553000534,None,j,0.6875640000216663,748.4080985001056,None,,,,,,,b,001,2021_Jun_30_1810,toilet,2021.1.3,99.89830358991625,
0,0,4,-4,1.15,,,,,1,0,1,0,0,2,2,13,,,,,,,,,,,,,,,,,,,,,,,750.1192542000208,None,750.1192542000208,None,749.6189160000067,None,f,0.6083420999348164,750.1192542000208,None,,,,,,,b,001,2021_Jun_30_1810,toilet,2021.1.3,99.89830358991625,
0,180,4,-4,1.06,,,,,1,0,1,0,0,3,3,26,,,,,,,,,,,,,,,,,,,,,,,751.7404350000434,None,751.7404350000434,None,751.2400517000351,None,f,2.8910553000168875,751.7404350000434,None,,,,,,,b,001,2021_Jun_30_1810,toilet,2021.1.3,99.89830358991625,
0,180,-4,4,0.85,,,,,1,0,1,0,0,4,4,14,,,,,,,,,,,,,,,,,,,,,,,755.6329907000763,None,755.6329907000763,None,755.1326481000287,None,f,0.9666602000361308,755.6329907000763,None,,,,,,,b,001,2021_Jun_30_1810,toilet,2021.1.3,99.89830358991625,
0,180,-4,4,0.97,,,,,1,0,1,0,0,5,5,16,,,,,,,,,,,,,,,,,,,,,,,757.6143329000333,None,757.6143329000333,None,757.1139926000033,None,f,5.849316900013946,757.6143329000333,None,,,,,,,b,001,2021_Jun_30_1810,toilet,2021.1.3,99.89830358991625,
0,0,-4,4,1.03,,,,,1,0,1,0,0,6,6,4,,,,,,,,,,,,,,,,,,,,,,,764.4889663000358,None,764.4889663000358,None,763.9886509000789,None,j,6.334837399888784,764.4889663000358,None,,,,,,,b,001,2021_Jun_30_1810,toilet,2021.1.3,99.89830358991625,
180,0,4,-4,0.97,,,,,1,0,1,0,0,7,7,51,,,,,,,,,,,,,,,,,,,,,,,771.83396180009,None,771.83396180009,None,771.3336208000546,None,j,2.1895543000428006,771.83396180009,None,,,,,,,b,001,2021_Jun_30_1810,toilet,2021.1.3,99.89830358991625,
180,0,-4,4,1.0,,,,,1,0,1,0,0,8,8,45,,,,,,,,,,,,,,,,,,,,,,,775.0261243000859,None,775.0261243000859,None,774.525826200028,None,f,5.605453300056979,775.0261243000859,None,,,,,,,b,001,2021_Jun_30_1810,toilet,2021.1.3,99.89830358991625,
0,180,-4,4,1.03,,,,,1,0,1,0,0,9,9,18,,,,,,,,,,,,,,,,,,,,,,,781.640681900084,None,781.640681900084,None,781.14036640001,None,j,4.526951499981806,781.640681900084,None,,,,,,,b,001,2021_Jun_30_1810,toilet,2021.1.3,99.89830358991625,
0,0,-4,4,1.06,,,,,1,0,1,0,0,10,10,5,,,,,,,,,,,,,,,,,,,,,,,787.1944022000534,None,787.1944022000534,None,786.6940662000561,None,j,9.133089400012977,787.1944022000534,None,,,,,,,b,001,2021_Jun_30_1810,toilet,2021.1.3,99.89830358991625,
180,0,-4,4,1.06,,,,,1,0,1,0,0,11,11,47,,,,,,,,,,,,,,,,,,,,,,,797.3412348000566,None,797.3412348000566,None,796.8409362999955,None,j,1.146212499937974,797.3412348000566,None,,,,,,,b,001,2021_Jun_30_1810,toilet,2021.1.3,99.89830358991625,
180,180,-4,4,0.94,,,,,1,0,1,0,0,12,12,29,,,,,,,,,,,,,,,,,,,,,,,799.4926926000044,None,799.4926926000044,None,798.9923670000862,None,f,7.394785500015132,799.4926926000044,None,,,,,,,b,001,2021_Jun_30_1810,toilet,2021.1.3,99.89830358991625,
0,0,-4,4,0.97,,,,,1,0,1,0,0,13,13,2,,,,,,,,,,,,,,,,,,,,,,,807.8883778000018,None,807.8883778000018,None,807.388050800073,None,j,5.655143599957228,807.8883778000018,None,,,,,,,b,001,2021_Jun_30_1810,toilet,2021.1.3,99.89830358991625,
180,0,-4,4,0.94,,,,,1,0,1,0,0,14,14,43,,,,,,,,,,,,,,,,,,,,,,,814.542886100011,None,814.542886100011,None,814.0425524000311,None,f,1.4167645999696106,814.542886100011,None,,,,,,,b,001,2021_Jun_30_1810,toilet,2021.1.3,99.89830358991625,
0,180,-4,4,1.0,,,,,1,0,1,0,0,15,15,17,,,,,,,,,,,,,,,,,,,,,,,816.9845426999964,None,816.9845426999964,None,816.484281900106,None,j,1.4868927999632433,816.9845426999964,None,,,,,,,b,001,2021_Jun_30_1810,toilet,2021.1.3,99.89830358991625,
0,180,4,-4,0.94,,,,,1,0,1,0,0,16,16,22,,,,,,,,,,,,,,,,,,,,,,,819.4762344000628,None,819.4762344000628,None,818.9758957000449,None,j,3.37933620007243,819.4762344000628,None,,,,,,,b,001,2021_Jun_30_1810,toilet,2021.1.3,99.89830358991625,
0,0,4,-4,1.0,,,,,1,0,1,0,0,17,17,10,,,,,,,,,,,,,,,,,,,,,,,823.8692044001073,None,823.8692044001073,None,823.3689079000615,None,f,4.346352700027637,823.8692044001073,None,,,,,,,b,001,2021_Jun_30_1810,toilet,2021.1.3,99.89830358991625,
180,0,-4,4,0.97,,,,,1,0,1,0,0,18,18,44,,,,,,,,,,,,,,,,,,,,,,,829.2228297000984,None,829.2228297000984,None,828.722490800079,None,f,3.9687176999868825,829.2228297000984,None,,,,,,,b,001,2021_Jun_30_1810,toilet,2021.1.3,99.89830358991625,
180,0,4,-4,0.85,,,,,1,0,1,0,0,19,19,49,,,,,,,,,,,,,,,,,,,,,,,834.20620590006,None,834.20620590006,None,833.705905900104,None,j,0.8251989000709727,834.20620590006,None,,,,,,,b,001,2021_Jun_30_1810,toilet,2021.1.3,99.89830358991625,
180,0,-4,4,1.03,,,,,1,0,1,0,0,20,20,46,,,,,,,,,,,,,,,,,,,,,,,836.0374556001043,None,836.0374556001043,None,835.5371068000095,None,j,6.050056300009601,836.0374556001043,None,,,,,,,b,001,2021_Jun_30_1810,toilet,2021.1.3,99.89830358991625,
0,0,-4,4,1.0,,,,,1,0,1,0,0,21,21,3,,,,,,,,,,,,,,,,,,,,,,,843.092223100015,None,843.092223100015,None,842.5918834001059,None,j,6.6273080999962986,843.092223100015,None,,,,,,,b,001,2021_Jun_30_1810,toilet,2021.1.3,99.89830358991625,
0,180,4,-4,1.0,,,,,1,0,1,0,0,22,22,24,,,,,,,,,,,,,,,,,,,,,,,850.727393600042,None,850.727393600042,None,850.2270535000134,None,j,3.312146699987352,850.727393600042,None,,,,,,,b,001,2021_Jun_30_1810,toilet,2021.1.3,99.89830358991625,
0,0,4,-4,1.03,,,,,1,0,1,0,0,23,23,11,,,,,,,,,,,,,,,,,,,,,,,855.0503207000438,None,855.0503207000438,None,854.5500661000842,None,f,1.917082899948582,855.0503207000438,None,,,,,,,b,001,2021_Jun_30_1810,toilet,2021.1.3,99.89830358991625,
0,180,4,-4,1.03,,,,,1,0,1,0,0,24,24,25,,,,,,,,,,,,,,,,,,,,,,,857.972297100001,None,857.972297100001,None,857.4719625000143,None,f,2.515193899977021,857.972297100001,None,,,,,,,b,001,2021_Jun_30_1810,toilet,2021.1.3,99.89830358991625,
180,180,4,-4,1.15,,,,,1,0,1,0,0,25,25,41,,,,,,,,,,,,,,,,,,,,,,,861.4947771000443,None,861.4947771000443,None,860.994344900013,None,f,0.9605916000436991,861.4947771000443,None,,,,,,,b,001,2021_Jun_30_1810,toilet,2021.1.3,99.89830358991625,
0,180,4,-4,1.15,,,,,1,0,1,0,0,26,26,27,,,,,,,,,,,,,,,,,,,,,,,863.4560134001076,None,863.4560134001076,None,862.9557157000527,None,f,1.3834793999558315,863.4560134001076,None,,,,,,,b,001,2021_Jun_30_1810,toilet,2021.1.3,99.89830358991625,
180,0,4,-4,0.94,,,,,1,0,1,0,0,27,27,50,,,,,,,,,,,,,,,,,,,,,,,865.8476007001009,None,865.8476007001009,None,865.3472949001007,None,j,1.391959400032647,865.8476007001009,None,,,,,,,b,001,2021_Jun_30_1810,toilet,2021.1.3,99.89830358991625,
180,0,4,-4,1.06,,,,,1,0,1,0,0,28,28,54,,,,,,,,,,,,,,,,,,,,,,,868.2493385000853,None,868.2493385000853,None,867.7489194000373,None,f,1.6302718999795616,868.2493385000853,None,,,,,,,b,001,2021_Jun_30_1810,toilet,2021.1.3,99.89830358991625,
180,180,4,-4,1.03,,,,,1,0,1,0,0,29,29,39,,,,,,,,,,,,,,,,,,,,,,,870.8910301000578,None,870.8910301000578,None,870.3907172000036,None,f,1.4203524000477046,870.8910301000578,None,,,,,,,b,001,2021_Jun_30_1810,toilet,2021.1.3,99.89830358991625,
180,0,4,-4,1.03,,,,,1,0,1,0,0,30,30,53,,,,,,,,,,,,,,,,,,,,,,,873.3126876000315,None,873.3126876000315,None,872.8123497000197,None,j,0.9187912999186665,873.3126876000315,None,,,,,,,b,001,2021_Jun_30_1810,toilet,2021.1.3,99.89830358991625,
0,180,4,-4,0.97,,,,,1,0,1,0,0,31,31,23,,,,,,,,,,,,,,,,,,,,,,,875.2439990000566,None,875.2439990000566,None,874.7436658000806,None,j,1.8035904999123886,875.2439990000566,None,,,,,,,b,001,2021_Jun_30_1810,toilet,2021.1.3,99.89830358991625,
0,0,4,-4,1.06,,,,,1,0,1,0,0,32,32,12,,,,,,,,,,,,,,,,,,,,,,,878.0659100000048,None,878.0659100000048,None,877.5655705000972,None,f,1.4614879000000656,878.0659100000048,None,,,,,,,b,001,2021_Jun_30_1810,toilet,2021.1.3,99.89830358991625,
0,0,-4,4,0.85,,,,,1,0,1,0,0,33,33,0,,,,,,,,,,,,,,,,,,,,,,,880.5275849000318,None,880.5275849000318,None,880.027243000106,None,f,0.6959498999640346,880.5275849000318,None,,,,,,,b,001,2021_Jun_30_1810,toilet,2021.1.3,99.89830358991625,
180,180,-4,4,0.85,,,,,1,0,1,0,0,34,34,28,,,,,,,,,,,,,,,,,,,,,,,882.2487398000667,None,882.2487398000667,None,881.7484035000671,None,f,0.6387010000180453,882.2487398000667,None,,,,,,,b,001,2021_Jun_30_1810,toilet,2021.1.3,99.89830358991625,
0,180,-4,4,0.94,,,,,1,0,1,0,0,35,35,15,,,,,,,,,,,,,,,,,,,,,,,883.8998662000522,None,883.8998662000522,None,883.399596500094,None,f,5.707695699995384,883.8998662000522,None,,,,,,,b,001,2021_Jun_30_1810,toilet,2021.1.3,99.89830358991625,
180,180,-4,4,0.97,,,,,1,0,1,0,0,36,36,30,,,,,,,,,,,,,,,,,,,,,,,890.6344329999993,None,890.6344329999993,None,890.1340821000049,None,f,3.8369364000391215,890.6344329999993,None,,,,,,,b,001,2021_Jun_30_1810,toilet,2021.1.3,99.89830358991625,
0,0,4,-4,0.94,,,,,1,0,1,0,0,37,37,8,,,,,,,,,,,,,,,,,,,,,,,895.4777070001,None,895.4777070001,None,894.9773584000068,None,j,2.0180998999858275,895.4777070001,None,,,,,,,b,001,2021_Jun_30_1810,toilet,2021.1.3,99.89830358991625,
180,180,-4,4,1.0,,,,,1,0,1,0,0,38,38,31,,,,,,,,,,,,,,,,,,,,,,,898.5098442001035,None,898.5098442001035,None,898.0094234000426,None,j,3.097514700028114,898.5098442001035,None,,,,,,,b,001,2021_Jun_30_1810,toilet,2021.1.3,99.89830358991625,
0,180,4,-4,0.85,,,,,1,0,1,0,0,39,39,21,,,,,,,,,,,,,,,,,,,,,,,902.612533000065,None,902.612533000065,None,902.1121920000296,None,j,0.6911205000942573,902.612533000065,None,,,,,,,b,001,2021_Jun_30_1810,toilet,2021.1.3,99.89830358991625,
180,0,-4,4,1.15,,,,,1,0,1,0,0,40,40,48,,,,,,,,,,,,,,,,,,,,,,,904.3136887000874,None,904.3136887000874,None,903.8133559999987,None,j,1.0856435999739915,904.3136887000874,None,,,,,,,b,001,2021_Jun_30_1810,toilet,2021.1.3,99.89830358991625,
0,180,-4,4,1.15,,,,,1,0,1,0,0,41,41,20,,,,,,,,,,,,,,,,,,,,,,,906.4051881000632,None,906.4051881000632,None,905.904854600085,None,j,0.9622670999960974,906.4051881000632,None,,,,,,,b,001,2021_Jun_30_1810,toilet,2021.1.3,99.89830358991625,
0,0,-4,4,0.94,,,,,1,0,1,0,0,42,42,1,,,,,,,,,,,,,,,,,,,,,,,908.3664279000368,None,908.3664279000368,None,907.8660913000349,None,f,1.081000700010918,908.3664279000368,None,,,,,,,b,001,2021_Jun_30_1810,toilet,2021.1.3,99.89830358991625,
180,180,-4,4,1.03,,,,,1,0,1,0,0,43,43,32,,,,,,,,,,,,,,,,,,,,,,,910.4478406000417,None,910.4478406000417,None,909.9475016000215,None,j,1.1279544999124482,910.4478406000417,None,,,,,,,b,001,2021_Jun_30_1810,toilet,2021.1.3,99.89830358991625,
0,180,-4,4,1.06,,,,,1,0,1,0,0,44,44,19,,,,,,,,,,,,,,,,,,,,,,,912.5893659000285,None,912.5893659000285,None,912.0889542000368,None,j,1.225946499966085,912.5893659000285,None,,,,,,,b,001,2021_Jun_30_1810,toilet,2021.1.3,99.89830358991625,
180,180,4,-4,0.94,,,,,1,0,1,0,0,45,45,36,,,,,,,,,,,,,,,,,,,,,,,914.8208022000035,None,914.8208022000035,None,914.3205009000376,None,j,1.0585466000484303,914.8208022000035,None,,,,,,,b,001,2021_Jun_30_1810,toilet,2021.1.3,99.89830358991625,
180,0,4,-4,1.0,,,,,1,0,1,0,0,46,46,52,,,,,,,,,,,,,,,,,,,,,,,916.8821976000909,None,916.8821976000909,None,916.3818648000015,None,j,1.8932710000080988,916.8821976000909,None,,,,,,,b,001,2021_Jun_30_1810,toilet,2021.1.3,99.89830358991625,
180,180,-4,4,1.06,,,,,1,0,1,0,0,47,47,33,,,,,,,,,,,,,,,,,,,,,,,919.8041758000618,None,919.8041758000618,None,919.3038370000431,None,j,0.9871633000439033,919.8041758000618,None,,,,,,,b,001,2021_Jun_30_1810,toilet,2021.1.3,99.89830358991625,
180,0,-4,4,0.85,,,,,1,0,1,0,0,48,48,42,,,,,,,,,,,,,,,,,,,,,,,921.7955647000344,None,921.7955647000344,None,921.2952002000529,None,f,1.0118244000477716,921.7955647000344,None,,,,,,,b,001,2021_Jun_30_1810,toilet,2021.1.3,99.89830358991625,
180,180,-4,4,1.15,,,,,1,0,1,0,0,49,49,34,,,,,,,,,,,,,,,,,,,,,,,923.8068883999949,None,923.8068883999949,None,923.3065549000166,None,j,1.0166020999895409,923.8068883999949,None,,,,,,,b,001,2021_Jun_30_1810,toilet,2021.1.3,99.89830358991625,
180,180,4,-4,1.0,,,,,1,0,1,0,0,50,50,38,,,,,,,,,,,,,,,,,,,,,,,925.8482731000986,None,925.8482731000986,None,925.34793300007,None,j,0.7351217999821529,925.8482731000986,None,,,,,,,b,001,2021_Jun_30_1810,toilet,2021.1.3,99.89830358991625,
180,180,4,-4,0.85,,,,,1,0,1,0,0,51,51,35,,,,,,,,,,,,,,,,,,,,,,,927.5895197000355,None,927.5895197000355,None,927.0991214000387,None,j,0.609900200041011,927.5895197000355,None,,,,,,,b,001,2021_Jun_30_1810,toilet,2021.1.3,99.89830358991625,
0,0,-4,4,1.15,,,,,1,0,1,0,0,52,52,6,,,,,,,,,,,,,,,,,,,,,,,929.2005475000478,None,929.2005475000478,None,928.7002756000729,None,j,1.094754800084047,929.2005475000478,None,,,,,,,b,001,2021_Jun_30_1810,toilet,2021.1.3,99.89830358991625,
180,0,4,-4,1.15,,,,,1,0,1,0,0,53,53,55,,,,,,,,,,,,,,,,,,,,,,,931.301965599996,None,931.301965599996,None,930.8016304000048,None,f,0.6893678000196815,931.301965599996,None,,,,,,,b,001,2021_Jun_30_1810,toilet,2021.1.3,99.89830358991625,
180,180,4,-4,1.06,,,,,1,0,1,0,0,54,54,40,,,,,,,,,,,,,,,,,,,,,,,932.9931079000235,None,932.9931079000235,None,932.4927777000703,None,f,2.1501899999566376,932.9931079000235,None,,,,,,,b,001,2021_Jun_30_1810,toilet,2021.1.3,99.89830358991625,
0,0,4,-4,0.97,,,,,1,0,1,0,0,55,55,9,,,,,,,,,,,,,,,,,,,,,,,936.1452813000651,None,936.1452813000651,None,935.6449897000566,None,j,2.614100100006908,936.1452813000651,None,,,,,,,b,001,2021_Jun_30_1810,toilet,2021.1.3,99.89830358991625,
180,0,4,-4,1.06,,,,,1,0,1,0,1,0,56,54,,,,,,,,,,,,,,,,,,,,,,,939.767697900068,None,939.767697900068,None,939.2673370999983,None,f,2.559744100086391,939.767697900068,None,,,,,,,b,001,2021_Jun_30_1810,toilet,2021.1.3,99.89830358991625,
0,0,4,-4,1.15,,,,,1,0,1,0,1,1,57,13,,,,,,,,,,,,,,,,,,,,,,,943.3301185000455,None,943.3301185000455,None,942.8298487000866,None,f,0.7252802998991683,943.3301185000455,None,,,,,,,b,001,2021_Jun_30_1810,toilet,2021.1.3,99.89830358991625,
180,180,4,-4,1.0,,,,,1,0,1,0,1,2,58,38,,,,,,,,,,,,,,,,,,,,,,,945.0612812000327,None,945.0612812000327,None,944.5609661000781,None,j,1.2340772999450564,945.0612812000327,None,,,,,,,b,001,2021_Jun_30_1810,toilet,2021.1.3,99.89830358991625,
0,0,-4,4,0.97,,,,,1,0,1,0,1,3,59,2,,,,,,,,,,,,,,,,,,,,,,,947.30280090007,None,947.30280090007,None,946.8024600000354,None,f,1.408690300071612,947.30280090007,None,,,,,,,b,001,2021_Jun_30_1810,toilet,2021.1.3,99.89830358991625,
180,180,4,-4,1.15,,,,,1,0,1,0,1,4,60,41,,,,,,,,,,,,,,,,,,,,,,,949.7244396000169,None,949.7244396000169,None,949.2241816000314,None,f,0.7148729999316856,949.7244396000169,None,,,,,,,b,001,2021_Jun_30_1810,toilet,2021.1.3,99.89830358991625,
0,180,4,-4,0.85,,,,,1,0,1,0,1,5,61,21,,,,,,,,,,,,,,,,,,,,,,,951.4456192000071,None,951.4456192000071,None,950.9452693000203,None,j,0.8657480999827385,951.4456192000071,None,,,,,,,b,001,2021_Jun_30_1810,toilet,2021.1.3,99.89830358991625,
180,0,4,-4,1.0,,,,,1,0,1,0,1,6,62,52,,,,,,,,,,,,,,,,,,,,,,,953.3168742000125,None,953.3168742000125,None,952.8165333000943,None,f,2.2425672999816015,953.3168742000125,None,,,,,,,b,001,2021_Jun_30_1810,toilet,2021.1.3,99.89830358991625,
180,0,4,-4,0.97,,,,,1,0,1,0,1,7,63,51,,,,,,,,,,,,,,,,,,,,,,,956.5690777000273,None,956.5690777000273,None,956.0687571000308,None,j,3.5022339000133798,956.5690777000273,None,,,,,,,b,001,2021_Jun_30_1810,toilet,2021.1.3,99.89830358991625,
180,0,4,-4,1.15,,,,,1,0,1,0,1,8,64,55,,,,,,,,,,,,,,,,,,,,,,,961.0721248000627,None,961.0721248000627,None,960.5717882000608,None,f,0.7753235000418499,961.0721248000627,None,,,,,,,b,001,2021_Jun_30_1810,toilet,2021.1.3,99.89830358991625,
0,0,4,-4,1.03,,,,,1,0,1,0,1,9,65,11,,,,,,,,,,,,,,,,,,,,,,,962.8733429000713,None,962.8733429000713,None,962.3730115999933,None,f,0.8781192000024021,962.8733429000713,None,,,,,,,b,001,2021_Jun_30_1810,toilet,2021.1.3,99.89830358991625,
0,0,4,-4,0.97,,,,,1,0,1,0,1,10,66,9,,,,,,,,,,,,,,,,,,,,,,,964.7646291001001,None,964.7646291001001,None,964.264386099996,None,j,1.0348183000460267,964.7646291001001,None,,,,,,,b,001,2021_Jun_30_1810,toilet,2021.1.3,99.89830358991625,
180,180,-4,4,1.03,,,,,1,0,1,0,1,11,67,32,,,,,,,,,,,,,,,,,,,,,,,966.8160241000587,None,966.8160241000587,None,966.3157549001044,None,j,1.7512804999714717,966.8160241000587,None,,,,,,,b,001,2021_Jun_30_1810,toilet,2021.1.3,99.89830358991625,
180,0,-4,4,0.97,,,,,1,0,1,0,1,12,68,44,,,,,,,,,,,,,,,,,,,,,,,969.5778903000755,None,969.5778903000755,None,969.0775446000043,None,f,2.301565100089647,969.5778903000755,None,,,,,,,b,001,2021_Jun_30_1810,toilet,2021.1.3,99.89830358991625,
180,0,-4,4,1.15,,,,,1,0,1,0,1,13,69,48,,,,,,,,,,,,,,,,,,,,,,,972.8902233000845,None,972.8902233000845,None,972.3898853000719,None,j,0.8931098999455571,972.8902233000845,None,,,,,,,b,001,2021_Jun_30_1810,toilet,2021.1.3,99.89830358991625,
180,0,-4,4,1.03,,,,,1,0,1,0,1,14,70,46,,,,,,,,,,,,,,,,,,,,,,,974.791415899992,None,974.791415899992,None,974.2910807000007,None,j,1.6799801000161096,974.791415899992,None,,,,,,,b,001,2021_Jun_30_1810,toilet,2021.1.3,99.89830358991625,
0,180,4,-4,0.97,,,,,1,0,1,0,1,15,71,23,,,,,,,,,,,,,,,,,,,,,,,977.4832441000035,None,977.4832441000035,None,976.9829044000944,None,j,1.5001337999710813,977.4832441000035,None,,,,,,,b,001,2021_Jun_30_1810,toilet,2021.1.3,99.89830358991625,
0,180,-4,4,1.03,,,,,1,0,1,0,1,16,72,18,,,,,,,,,,,,,,,,,,,,,,,979.9949461000506,None,979.9949461000506,None,979.4946979000233,None,j,1.4363069001119584,979.9949461000506,None,,,,,,,b,001,2021_Jun_30_1810,toilet,2021.1.3,99.89830358991625,
180,0,-4,4,0.94,,,,,1,0,1,0,1,17,73,43,,,,,,,,,,,,,,,,,,,,,,,982.436594100087,None,982.436594100087,None,981.9362570000812,None,j,1.7307620000792667,982.436594100087,None,,,,,,,b,001,2021_Jun_30_1810,toilet,2021.1.3,99.89830358991625,
0,0,-4,4,0.85,,,,,1,0,1,0,1,18,74,0,,,,,,,,,,,,,,,,,,,,,,,985.1784544000402,None,985.1784544000402,None,984.6781167000299,None,f,0.8289307999657467,985.1784544000402,None,,,,,,,b,001,2021_Jun_30_1810,toilet,2021.1.3,99.89830358991625,
0,180,4,-4,1.03,,,,,1,0,1,0,1,19,75,25,,,,,,,,,,,,,,,,,,,,,,,987.0197006000672,None,987.0197006000672,None,986.5194375000428,None,f,1.5955484000733122,987.0197006000672,None,,,,,,,b,001,2021_Jun_30_1810,toilet,2021.1.3,99.89830358991625,
0,0,4,-4,1.0,,,,,1,0,1,0,1,20,76,10,,,,,,,,,,,,,,,,,,,,,,,989.6214662001003,None,989.6214662001003,None,989.1211220000405,None,j,1.0258095000172034,989.6214662001003,None,,,,,,,b,001,2021_Jun_30_1810,toilet,2021.1.3,99.89830358991625,
0,180,-4,4,0.85,,,,,1,0,1,0,1,21,77,14,,,,,,,,,,,,,,,,,,,,,,,991.6528372000903,None,991.6528372000903,None,991.1524988000747,None,f,0.7704827999696136,991.6528372000903,None,,,,,,,b,001,2021_Jun_30_1810,toilet,2021.1.3,99.89830358991625,
180,180,-4,4,1.0,,,,,1,0,1,0,1,22,78,31,,,,,,,,,,,,,,,,,,,,,,,993.4341202999931,None,993.4341202999931,None,992.9337078999961,None,j,1.0052260999800637,993.4341202999931,None,,,,,,,b,001,2021_Jun_30_1810,toilet,2021.1.3,99.89830358991625,
0,0,-4,4,1.0,,,,,1,0,1,0,1,23,79,3,,,,,,,,,,,,,,,,,,,,,,,995.445413300069,None,995.445413300069,None,994.9451595999999,None,f,0.9938837999943644,995.445413300069,None,,,,,,,b,001,2021_Jun_30_1810,toilet,2021.1.3,99.89830358991625,
180,180,-4,4,0.97,,,,,1,0,1,0,1,24,80,30,,,,,,,,,,,,,,,,,,,,,,,997.446763999993,None,997.446763999993,None,996.9464229000732,None,f,2.720558400033042,997.446763999993,None,,,,,,,b,001,2021_Jun_30_1810,toilet,2021.1.3,99.89830358991625,
0,0,-4,4,0.94,,,,,1,0,1,0,1,25,81,1,,,,,,,,,,,,,,,,,,,,,,,1001.1793646001024,None,1001.1793646001024,None,1000.6789501000894,None,f,1.1478721000021324,1001.1793646001024,None,,,,,,,b,001,2021_Jun_30_1810,toilet,2021.1.3,99.89830358991625,
180,180,4,-4,1.03,,,,,1,0,1,0,1,26,82,39,,,,,,,,,,,,,,,,,,,,,,,1003.3307751000393,None,1003.3307751000393,None,1002.8304896000773,None,f,1.428473399952054,1003.3307751000393,None,,,,,,,b,001,2021_Jun_30_1810,toilet,2021.1.3,99.89830358991625,
0,180,-4,4,1.15,,,,,1,0,1,0,1,27,83,20,,,,,,,,,,,,,,,,,,,,,,,1005.762392600067,None,1005.762392600067,None,1005.2620548000559,None,j,0.7248636001022533,1005.762392600067,None,,,,,,,b,001,2021_Jun_30_1810,toilet,2021.1.3,99.89830358991625,
0,0,-4,4,1.03,,,,,1,0,1,0,1,28,84,4,,,,,,,,,,,,,,,,,,,,,,,1007.4935709000565,None,1007.4935709000565,None,1006.993225500104,None,j,10.129874200094491,1007.4935709000565,None,,,,,,,b,001,2021_Jun_30_1810,toilet,2021.1.3,99.89830358991625,
0,0,-4,4,1.06,,,,,1,0,1,0,1,29,85,5,,,,,,,,,,,,,,,,,,,,,,,1018.6411171000218,None,1018.6411171000218,None,1018.1407759001013,None,j,1.4780868999660015,1018.6411171000218,None,,,,,,,b,001,2021_Jun_30_1810,toilet,2021.1.3,99.89830358991625,
180,180,4,-4,0.94,,,,,1,0,1,0,1,30,86,36,,,,,,,,,,,,,,,,,,,,,,,1021.1227975999936,None,1021.1227975999936,None,1020.6224638000131,None,j,1.0125553000252694,1021.1227975999936,None,,,,,,,b,001,2021_Jun_30_1810,toilet,2021.1.3,99.89830358991625,
180,180,4,-4,1.06,,,,,1,0,1,0,1,31,87,40,,,,,,,,,,,,,,,,,,,,,,,1023.1642492000246,None,1023.1642492000246,None,1022.663839600049,None,f,3.4670921999495476,1023.1642492000246,None,,,,,,,b,001,2021_Jun_30_1810,toilet,2021.1.3,99.89830358991625,
180,0,-4,4,1.0,,,,,1,0,1,0,1,32,88,45,,,,,,,,,,,,,,,,,,,,,,,1027.6372085000621,None,1027.6372085000621,None,1027.1368685000343,None,j,7.346085000084713,1027.6372085000621,None,,,,,,,b,001,2021_Jun_30_1810,toilet,2021.1.3,99.89830358991625,
0,180,-4,4,1.0,,,,,1,0,1,0,1,33,89,17,,,,,,,,,,,,,,,,,,,,,,,1035.99287680001,None,1035.99287680001,None,1035.4925290000392,None,f,19.886336499941535,1035.99287680001,None,,,,,,,b,001,2021_Jun_30_1810,toilet,2021.1.3,99.89830358991625,
0,0,4,-4,0.85,,,,,1,0,1,0,1,34,90,7,,,,,,,,,,,,,,,,,,,,,,,1056.8870175000047,None,1056.8870175000047,None,1056.3866826000158,None,j,0.9443147999700159,1056.8870175000047,None,,,,,,,b,001,2021_Jun_30_1810,toilet,2021.1.3,99.89830358991625,
180,0,4,-4,0.94,,,,,1,0,1,0,1,35,91,50,,,,,,,,,,,,,,,,,,,,,,,1058.8383408000227,None,1058.8383408000227,None,1058.3480119000887,None,j,1.0249289999483153,1058.8383408000227,None,,,,,,,b,001,2021_Jun_30_1810,toilet,2021.1.3,99.89830358991625,
0,180,-4,4,0.94,,,,,1,0,1,0,1,36,92,15,,,,,,,,,,,,,,,,,,,,,,,1060.879725900013,None,1060.879725900013,None,1060.3794742000755,None,f,1.0315756000345573,1060.879725900013,None,,,,,,,b,001,2021_Jun_30_1810,toilet,2021.1.3,99.89830358991625,
180,0,-4,4,1.06,,,,,1,0,1,0,1,37,93,47,,,,,,,,,,,,,,,,,,,,,,,1062.921108800103,None,1062.921108800103,None,1062.4207674000645,None,j,1.070270900032483,1062.921108800103,None,,,,,,,b,001,2021_Jun_30_1810,toilet,2021.1.3,99.89830358991625,
180,0,4,-4,0.85,,,,,1,0,1,0,1,38,94,49,,,,,,,,,,,,,,,,,,,,,,,1065.0025245000143,None,1065.0025245000143,None,1064.5021767000435,None,j,0.8766438999446109,1065.0025245000143,None,,,,,,,b,001,2021_Jun_30_1810,toilet,2021.1.3,99.89830358991625,
0,180,4,-4,1.15,,,,,1,0,1,0,1,39,95,27,,,,,,,,,,,,,,,,,,,,,,,1066.883790699998,None,1066.883790699998,None,1066.383456600015,None,f,0.8673705999972299,1066.883790699998,None,,,,,,,b,001,2021_Jun_30_1810,toilet,2021.1.3,99.89830358991625,
180,180,-4,4,1.15,,,,,1,0,1,0,1,40,96,34,,,,,,,,,,,,,,,,,,,,,,,1068.755140000023,None,1068.755140000023,None,1068.2548021000111,None,j,0.7401810999726877,1068.755140000023,None,,,,,,,b,001,2021_Jun_30_1810,toilet,2021.1.3,99.89830358991625,
0,180,4,-4,1.06,,,,,1,0,1,0,1,41,97,26,,,,,,,,,,,,,,,,,,,,,,,1070.4962505000876,None,1070.4962505000876,None,1070.0059046000242,None,f,2.5670699999900535,1070.4962505000876,None,,,,,,,b,001,2021_Jun_30_1810,toilet,2021.1.3,99.89830358991625,
0,0,-4,4,1.15,,,,,1,0,1,0,1,42,98,6,,,,,,,,,,,,,,,,,,,,,,,1074.0886709000915,None,1074.0886709000915,None,1073.5883371999953,None,j,0.7346639999886975,1074.0886709000915,None,,,,,,,b,001,2021_Jun_30_1810,toilet,2021.1.3,99.89830358991625,
180,180,4,-4,0.85,,,,,1,0,1,0,1,43,99,35,,,,,,,,,,,,,,,,,,,,,,,1075.839930200018,None,1075.839930200018,None,1075.339551800047,None,j,0.6472487000282854,1075.839930200018,None,,,,,,,b,001,2021_Jun_30_1810,toilet,2021.1.3,99.89830358991625,
0,180,4,-4,1.0,,,,,1,0,1,0,1,44,100,24,,,,,,,,,,,,,,,,,,,,,,,1077.4909783001058,None,1077.4909783001058,None,1076.9906368000666,None,j,5.860270499950275,1077.4909783001058,None,,,,,,,b,001,2021_Jun_30_1810,toilet,2021.1.3,99.89830358991625,
0,180,4,-4,0.94,,,,,1,0,1,0,1,45,101,22,,,,,,,,,,,,,,,,,,,,,,,1084.3556264000945,None,1084.3556264000945,None,1083.8553194000851,None,j,1.0755316000431776,1084.3556264000945,None,,,,,,,b,001,2021_Jun_30_1810,toilet,2021.1.3,99.89830358991625,
0,180,-4,4,1.06,,,,,1,0,1,0,1,46,102,19,,,,,,,,,,,,,,,,,,,,,,,1086.4370349000674,None,1086.4370349000674,None,1085.9366967000533,None,j,2.338509500026703,1086.4370349000674,None,,,,,,,b,001,2021_Jun_30_1810,toilet,2021.1.3,99.89830358991625,
180,180,-4,4,0.85,,,,,1,0,1,0,1,47,103,28,,,,,,,,,,,,,,,,,,,,,,,1089.789306999999,None,1089.789306999999,None,1089.2889685000991,None,f,0.7778616000432521,1089.789306999999,None,,,,,,,b,001,2021_Jun_30_1810,toilet,2021.1.3,99.89830358991625,
0,180,-4,4,0.97,,,,,1,0,1,0,1,48,104,16,,,,,,,,,,,,,,,,,,,,,,,1091.5705288000172,None,1091.5705288000172,None,1091.0701498000417,None,j,4.740725199924782,1091.5705288000172,None,,,,,,,b,001,2021_Jun_30_1810,toilet,2021.1.3,99.89830358991625,
0,0,4,-4,1.06,,,,,1,0,1,0,1,49,105,12,,,,,,,,,,,,,,,,,,,,,,,1097.3244161000475,None,1097.3244161000475,None,1096.8241547000362,None,f,1.1467289999127388,1097.3244161000475,None,,,,,,,b,001,2021_Jun_30_1810,toilet,2021.1.3,99.89830358991625,
180,0,4,-4,1.03,,,,,1,0,1,0,1,50,106,53,,,,,,,,,,,,,,,,,,,,,,,1099.4758764000144,None,1099.4758764000144,None,1098.9755489000818,None,j,6.419310500030406,1099.4758764000144,None,,,,,,,b,001,2021_Jun_30_1810,toilet,2021.1.3,99.89830358991625,
180,180,-4,4,1.06,,,,,1,0,1,0,1,51,107,33,,,,,,,,,,,,,,,,,,,,,,,1106.9008978999918,None,1106.9008978999918,None,1106.4005600000964,None,j,0.9622559000272304,1106.9008978999918,None,,,,,,,b,001,2021_Jun_30_1810,toilet,2021.1.3,99.89830358991625,
180,180,4,-4,0.97,,,,,1,0,1,0,1,52,108,37,,,,,,,,,,,,,,,,,,,,,,,1108.8722279000795,None,1108.8722279000795,None,1108.3718934000935,None,j,1.423033200087957,1108.8722279000795,None,,,,,,,b,001,2021_Jun_30_1810,toilet,2021.1.3,99.89830358991625,
0,0,4,-4,0.94,,,,,1,0,1,0,1,53,109,8,,,,,,,,,,,,,,,,,,,,,,,1111.3139688000083,None,1111.3139688000083,None,1110.8135531001026,None,j,1.2372356000123546,1111.3139688000083,None,,,,,,,b,001,2021_Jun_30_1810,toilet,2021.1.3,99.89830358991625,
180,180,-4,4,0.94,,,,,1,0,1,0,1,54,110,29,,,,,,,,,,,,,,,,,,,,,,,1113.5654873000458,None,1113.5654873000458,None,1113.0651629000204,None,f,2.873773099971004,1113.5654873000458,None,,,,,,,b,001,2021_Jun_30_1810,toilet,2021.1.3,99.89830358991625,
180,0,-4,4,0.85,,,,,1,0,1,0,1,55,111,42,,,,,,,,,,,,,,,,,,,,,,,1117.4480451000854,None,1117.4480451000854,None,1116.9476960001048,None,f,1.375243499991484,1117.4480451000854,None,,,,,,,b,001,2021_Jun_30_1810,toilet,2021.1.3,99.89830358991625,
,,,,,,,,,1,0,1,0,,,,,,,,,,,,,,,,,,,,,,,,,,,,,,,,,,,,,1118.859050600091,None,space,2.172282399958931,1118.859050600091,None,b,001,2021_Jun_30_1810,toilet,2021.1.3,99.89830358991625,
0,180,-4,4,1.0,,,,,2,0,2,0,0,0,0,17,,,,,,,,,,,,,,,,,1121.0505164000206,None,space,3.4685475000878796,1121.0505164000206,None,1125.5335216000676,None,1125.5335216000676,None,1125.0331740000984,None,j,1.2735933000221848,1125.5335216000676,None,,,,,,,b,001,2021_Jun_30_1810,toilet,2021.1.3,99.89830358991625,
180,0,-4,4,1.06,,,,,2,0,2,0,0,1,1,47,,,,,,,,,,,,,,,,,,,,,,,1127.8151414000895,None,1127.8151414000895,None,1127.3147576000774,None,j,0.799979499890469,1127.8151414000895,None,,,,,,,b,001,2021_Jun_30_1810,toilet,2021.1.3,99.89830358991625,
180,0,4,-4,0.97,,,,,2,0,2,0,0,2,2,51,,,,,,,,,,,,,,,,,,,,,,,1129.6162788000656,None,1129.6162788000656,None,1129.1159389000386,None,j,12.166854800074361,1129.6162788000656,None,,,,,,,b,001,2021_Jun_30_1810,toilet,2021.1.3,99.89830358991625,
180,0,-4,4,1.03,,,,,2,0,2,0,0,3,3,46,,,,,,,,,,,,,,,,,,,,,,,1142.7952442000387,None,1142.7952442000387,None,1142.2949576000683,None,j,3.8519264000933617,1142.7952442000387,None,,,,,,,b,001,2021_Jun_30_1810,toilet,2021.1.3,99.89830358991625,
0,0,-4,4,1.15,,,,,2,0,2,0,0,4,4,6,,,,,,,,,,,,,,,,,,,,,,,1147.6585097000934,None,1147.6585097000934,None,1147.158162800013,None,j,0.6047084999736398,1147.6585097000934,None,,,,,,,b,001,2021_Jun_30_1810,toilet,2021.1.3,99.89830358991625,
0,0,-4,4,0.85,,,,,2,0,2,0,0,5,5,0,,,,,,,,,,,,,,,,,,,,,,,1149.2897019000957,None,1149.2897019000957,None,1148.7892697000643,None,f,0.5733824000926688,1149.2897019000957,None,,,,,,,b,001,2021_Jun_30_1810,toilet,2021.1.3,99.89830358991625,
0,180,-4,4,1.15,,,,,2,0,2,0,0,6,6,20,,,,,,,,,,,,,,,,,,,,,,,1150.871713600005,None,1150.871713600005,None,1150.370354600018,None,j,0.6074665000196546,1150.871713600005,None,,,,,,,b,001,2021_Jun_30_1810,toilet,2021.1.3,99.89830358991625,
180,0,-4,4,1.0,,,,,2,0,2,0,0,7,7,45,,,,,,,,,,,,,,,,,,,,,,,1152.4817809000378,None,1152.4817809000378,None,1151.9814392999979,None,j,1.8294316999381408,1152.4817809000378,None,,,,,,,b,001,2021_Jun_30_1810,toilet,2021.1.3,99.89830358991625,
180,180,-4,4,0.85,,,,,2,0,2,0,0,8,8,28,,,,,,,,,,,,,,,,,,,,,,,1155.3236935000168,None,1155.3236935000168,None,1154.8233548999997,None,f,0.6993768999818712,1155.3236935000168,None,,,,,,,b,001,2021_Jun_30_1810,toilet,2021.1.3,99.89830358991625,
180,180,-4,4,1.0,,,,,2,0,2,0,0,9,9,31,,,,,,,,,,,,,,,,,,,,,,,1157.024882000056,None,1157.024882000056,None,1156.5245904000476,None,j,4.454271399998106,1157.024882000056,None,,,,,,,b,001,2021_Jun_30_1810,toilet,2021.1.3,99.89830358991625,
0,180,4,-4,0.97,,,,,2,0,2,0,0,10,10,23,,,,,,,,,,,,,,,,,,,,,,,1162.4885562000563,None,1162.4885562000563,None,1161.9882047000574,None,j,2.57459239999298,1162.4885562000563,None,,,,,,,b,001,2021_Jun_30_1810,toilet,2021.1.3,99.89830358991625,
180,180,-4,4,1.06,,,,,2,0,2,0,0,11,11,33,,,,,,,,,,,,,,,,,,,,,,,1166.0809821001021,None,1166.0809821001021,None,1165.5806408000644,None,j,1.7502024000277743,1166.0809821001021,None,,,,,,,b,001,2021_Jun_30_1810,toilet,2021.1.3,99.89830358991625,
0,180,-4,4,0.85,,,,,2,0,2,0,0,12,12,14,,,,,,,,,,,,,,,,,,,,,,,1168.84285060002,None,1168.84285060002,None,1168.3425204000669,None,f,0.7802808999549598,1168.84285060002,None,,,,,,,b,001,2021_Jun_30_1810,toilet,2021.1.3,99.89830358991625,
0,0,-4,4,0.94,,,,,2,0,2,0,0,13,13,1,,,,,,,,,,,,,,,,,,,,,,,1170.6341572999954,None,1170.6341572999954,None,1170.1337307000067,None,f,0.876999800093472,1170.6341572999954,None,,,,,,,b,001,2021_Jun_30_1810,toilet,2021.1.3,99.89830358991625,
180,0,-4,4,1.15,,,,,2,0,2,0,0,14,14,48,,,,,,,,,,,,,,,,,,,,,,,1172.515381300007,None,1172.515381300007,None,1172.0150870000944,None,j,0.6437925999052823,1172.515381300007,None,,,,,,,b,001,2021_Jun_30_1810,toilet,2021.1.3,99.89830358991625,
0,180,4,-4,0.85,,,,,2,0,2,0,0,15,15,21,,,,,,,,,,,,,,,,,,,,,,,1174.166456600069,None,1174.166456600069,None,1173.666117100045,None,j,0.6246059000259265,1174.166456600069,None,,,,,,,b,001,2021_Jun_30_1810,toilet,2021.1.3,99.89830358991625,
0,180,-4,4,0.94,,,,,2,0,2,0,0,16,16,15,,,,,,,,,,,,,,,,,,,,,,,1175.797560300096,None,1175.797560300096,None,1175.2972236000933,None,f,0.8654557999689132,1175.797560300096,None,,,,,,,b,001,2021_Jun_30_1810,toilet,2021.1.3,99.89830358991625,
0,0,4,-4,0.97,,,,,2,0,2,0,0,17,17,9,,,,,,,,,,,,,,,,,,,,,,,1177.6688286000863,None,1177.6688286000863,None,1177.1684904000722,None,j,1.7144016000675038,1177.6688286000863,None,,,,,,,b,001,2021_Jun_30_1810,toilet,2021.1.3,99.89830358991625,
180,0,4,-4,1.03,,,,,2,0,2,0,0,18,18,53,,,,,,,,,,,,,,,,,,,,,,,1180.390676900046,None,1180.390676900046,None,1179.9004297000356,None,f,0.6403677999041975,1180.390676900046,None,,,,,,,b,001,2021_Jun_30_1810,toilet,2021.1.3,99.89830358991625,
180,0,4,-4,0.94,,,,,2,0,2,0,0,19,19,50,,,,,,,,,,,,,,,,,,,,,,,1182.0317854000023,None,1182.0317854000023,None,1181.5314330999972,None,j,0.6794039999367669,1182.0317854000023,None,,,,,,,b,001,2021_Jun_30_1810,toilet,2021.1.3,99.89830358991625,
180,0,-4,4,0.85,,,,,2,0,2,0,0,20,20,42,,,,,,,,,,,,,,,,,,,,,,,1183.7229261000175,None,1183.7229261000175,None,1183.2225929000415,None,f,0.9561251000268385,1183.7229261000175,None,,,,,,,b,001,2021_Jun_30_1810,toilet,2021.1.3,99.89830358991625,
180,180,4,-4,1.06,,,,,2,0,2,0,0,21,21,40,,,,,,,,,,,,,,,,,,,,,,,1185.6843356000027,None,1185.6843356000027,None,1185.1839212001069,None,f,1.4908302000258118,1185.6843356000027,None,,,,,,,b,001,2021_Jun_30_1810,toilet,2021.1.3,99.89830358991625,
0,0,-4,4,1.03,,,,,2,0,2,0,0,22,22,4,,,,,,,,,,,,,,,,,,,,,,,1188.1859522000886,None,1188.1859522000886,None,1187.6856207000092,None,j,2.509278599987738,1188.1859522000886,None,,,,,,,b,001,2021_Jun_30_1810,toilet,2021.1.3,99.89830358991625,
180,180,-4,4,0.94,,,,,2,0,2,0,0,23,23,29,,,,,,,,,,,,,,,,,,,,,,,1191.7083359000972,None,1191.7083359000972,None,1191.208001699997,None,f,0.9868644999805838,1191.7083359000972,None,,,,,,,b,001,2021_Jun_30_1810,toilet,2021.1.3,99.89830358991625,
0,0,-4,4,1.0,,,,,2,0,2,0,0,24,24,3,,,,,,,,,,,,,,,,,,,,,,,1193.7197218000656,None,1193.7197218000656,None,1193.219357800088,None,f,2.4153556999517605,1193.7197218000656,None,,,,,,,b,001,2021_Jun_30_1810,toilet,2021.1.3,99.89830358991625,
180,0,4,-4,0.85,,,,,2,0,2,0,0,25,25,49,,,,,,,,,,,,,,,,,,,,,,,1197.1420197000261,None,1197.1420197000261,None,1196.6416766000912,None,j,0.7210112999891862,1197.1420197000261,None,,,,,,,b,001,2021_Jun_30_1810,toilet,2021.1.3,99.89830358991625,
0,0,-4,4,1.06,,,,,2,0,2,0,0,26,26,5,,,,,,,,,,,,,,,,,,,,,,,1198.8631848000223,None,1198.8631848000223,None,1198.3628447999945,None,j,0.9519520999165252,1198.8631848000223,None,,,,,,,b,001,2021_Jun_30_1810,toilet,2021.1.3,99.89830358991625,
0,0,4,-4,0.94,,,,,2,0,2,0,0,27,27,8,,,,,,,,,,,,,,,,,,,,,,,1200.8245338000124,None,1200.8245338000124,None,1200.3242619000375,None,j,0.990601799916476,1200.8245338000124,None,,,,,,,b,001,2021_Jun_30_1810,toilet,2021.1.3,99.89830358991625,
180,180,-4,4,1.15,,,,,2,0,2,0,0,28,28,34,,,,,,,,,,,,,,,,,,,,,,,1202.825865300023,None,1202.825865300023,None,1202.3255328000523,None,j,0.7491522999480367,1202.825865300023,None,,,,,,,b,001,2021_Jun_30_1810,toilet,2021.1.3,99.89830358991625,
180,180,4,-4,0.85,,,,,2,0,2,0,0,29,29,35,,,,,,,,,,,,,,,,,,,,,,,1204.5770548,None,1204.5770548,None,1204.0767170001054,None,j,0.7100008999696001,1204.5770548,None,,,,,,,b,001,2021_Jun_30_1810,toilet,2021.1.3,99.89830358991625,
0,180,-4,4,0.97,,,,,2,0,2,0,0,30,30,16,,,,,,,,,,,,,,,,,,,,,,,1206.2882153000683,None,1206.2882153000683,None,1205.7878736000275,None,f,1.9269840000197291,1206.2882153000683,None,,,,,,,b,001,2021_Jun_30_1810,toilet,2021.1.3,99.89830358991625,
0,180,4,-4,0.94,,,,,2,0,2,0,0,31,31,22,,,,,,,,,,,,,,,,,,,,,,,1209.2302185000153,None,1209.2302185000153,None,1208.7298691000324,None,j,0.6327846000203863,1209.2302185000153,None,,,,,,,b,001,2021_Jun_30_1810,toilet,2021.1.3,99.89830358991625,
180,180,4,-4,1.03,,,,,2,0,2,0,0,32,32,39,,,,,,,,,,,,,,,,,,,,,,,1210.8713198000332,None,1210.8713198000332,None,1210.3709780999925,None,j,1.488065299927257,1210.8713198000332,None,,,,,,,b,001,2021_Jun_30_1810,toilet,2021.1.3,99.89830358991625,
0,0,-4,4,0.97,,,,,2,0,2,0,0,33,33,2,,,,,,,,,,,,,,,,,,,,,,,1213.3730137000093,None,1213.3730137000093,None,1212.8726789000211,None,f,6.058196499943733,1213.3730137000093,None,,,,,,,b,001,2021_Jun_30_1810,toilet,2021.1.3,99.89830358991625,
0,180,-4,4,1.03,,,,,2,0,2,0,0,34,34,18,,,,,,,,,,,,,,,,,,,,,,,1220.457812900073,None,1220.457812900073,None,1219.957479200093,None,j,0.9891445999965072,1220.457812900073,None,,,,,,,b,001,2021_Jun_30_1810,toilet,2021.1.3,99.89830358991625,
180,0,4,-4,1.06,,,,,2,0,2,0,0,35,35,54,,,,,,,,,,,,,,,,,,,,,,,1222.449266700074,None,1222.449266700074,None,1221.9488196000457,None,f,3.4777179999509826,1222.449266700074,None,,,,,,,b,001,2021_Jun_30_1810,toilet,2021.1.3,99.89830358991625,
180,0,-4,4,0.97,,,,,2,0,2,0,0,36,36,44,,,,,,,,,,,,,,,,,,,,,,,1226.932195500005,None,1226.932195500005,None,1226.431855400093,None,j,1.1869640999939293,1226.932195500005,None,,,,,,,b,001,2021_Jun_30_1810,toilet,2021.1.3,99.89830358991625,
180,180,4,-4,1.15,,,,,2,0,2,0,0,37,37,41,,,,,,,,,,,,,,,,,,,,,,,1229.1337059000507,None,1229.1337059000507,None,1228.6433555000694,None,f,0.8254359998973086,1229.1337059000507,None,,,,,,,b,001,2021_Jun_30_1810,toilet,2021.1.3,99.89830358991625,
180,0,-4,4,0.94,,,,,2,0,2,0,0,38,38,43,,,,,,,,,,,,,,,,,,,,,,,1230.9749519000761,None,1230.9749519000761,None,1230.4746050999966,None,j,1.4641400000546128,1230.9749519000761,None,,,,,,,b,001,2021_Jun_30_1810,toilet,2021.1.3,99.89830358991625,
0,180,-4,4,1.06,,,,,2,0,2,0,0,39,39,19,,,,,,,,,,,,,,,,,,,,,,,1233.4466107001062,None,1233.4466107001062,None,1232.9462689000648,None,j,1.3444090000120923,1233.4466107001062,None,,,,,,,b,001,2021_Jun_30_1810,toilet,2021.1.3,99.89830358991625,
0,0,4,-4,1.15,,,,,2,0,2,0,0,40,40,13,,,,,,,,,,,,,,,,,,,,,,,1235.798203600105,None,1235.798203600105,None,1235.2978615000611,None,f,0.6729695999529213,1235.798203600105,None,,,,,,,b,001,2021_Jun_30_1810,toilet,2021.1.3,99.89830358991625,
180,180,4,-4,0.97,,,,,2,0,2,0,0,41,41,37,,,,,,,,,,,,,,,,,,,,,,,1237.4893508000532,None,1237.4893508000532,None,1236.9890882000327,None,j,1.141630099969916,1237.4893508000532,None,,,,,,,b,001,2021_Jun_30_1810,toilet,2021.1.3,99.89830358991625,
0,180,4,-4,1.03,,,,,2,0,2,0,0,42,42,25,,,,,,,,,,,,,,,,,,,,,,,1239.6307966000168,None,1239.6307966000168,None,1239.1304589000065,None,j,1.6402377999620512,1239.6307966000168,None,,,,,,,b,001,2021_Jun_30_1810,toilet,2021.1.3,99.89830358991625,
0,0,4,-4,1.0,,,,,2,0,2,0,0,43,43,10,,,,,,,,,,,,,,,,,,,,,,,1242.27258660004,None,1242.27258660004,None,1241.772249700036,None,j,1.4785163999767974,1242.27258660004,None,,,,,,,b,001,2021_Jun_30_1810,toilet,2021.1.3,99.89830358991625,
0,0,4,-4,0.85,,,,,2,0,2,0,0,44,44,7,,,,,,,,,,,,,,,,,,,,,,,1244.7643607000355,None,1244.7643607000355,None,1244.2639925000258,None,j,0.7467010000254959,1244.7643607000355,None,,,,,,,b,001,2021_Jun_30_1810,toilet,2021.1.3,99.89830358991625,
180,180,4,-4,1.0,,,,,2,0,2,0,0,45,45,38,,,,,,,,,,,,,,,,,,,,,,,1246.5254703999963,None,1246.5254703999963,None,1246.0251460000873,None,j,2.377497100038454,1246.5254703999963,None,,,,,,,b,001,2021_Jun_30_1810,toilet,2021.1.3,99.89830358991625,
0,0,4,-4,1.06,,,,,2,0,2,0,0,46,46,12,,,,,,,,,,,,,,,,,,,,,,,1249.9077694000443,None,1249.9077694000443,None,1249.4074226000812,None,f,1.5232837001094595,1249.9077694000443,None,,,,,,,b,001,2021_Jun_30_1810,toilet,2021.1.3,99.89830358991625,
0,180,4,-4,1.0,,,,,2,0,2,0,0,47,47,24,,,,,,,,,,,,,,,,,,,,,,,1252.439546400099,None,1252.439546400099,None,1251.939173700055,None,j,0.7834290000610054,1252.439546400099,None,,,,,,,b,001,2021_Jun_30_1810,toilet,2021.1.3,99.89830358991625,
180,180,-4,4,0.97,,,,,2,0,2,0,0,48,48,30,,,,,,,,,,,,,,,,,,,,,,,1254.230687100091,None,1254.230687100091,None,1253.7303509000922,None,j,4.0804069000296295,1254.230687100091,None,,,,,,,b,001,2021_Jun_30_1810,toilet,2021.1.3,99.89830358991625,
180,180,-4,4,1.03,,,,,2,0,2,0,0,49,49,32,,,,,,,,,,,,,,,,,,,,,,,1259.324207900092,None,1259.324207900092,None,1258.8237965001026,None,j,0.8588306000456214,1259.324207900092,None,,,,,,,b,001,2021_Jun_30_1810,toilet,2021.1.3,99.89830358991625,
180,0,4,-4,1.15,,,,,2,0,2,0,0,50,50,55,,,,,,,,,,,,,,,,,,,,,,,1261.1954197000014,None,1261.1954197000014,None,1260.6951563000912,None,f,0.6836777999997139,1261.1954197000014,None,,,,,,,b,001,2021_Jun_30_1810,toilet,2021.1.3,99.89830358991625,
0,180,4,-4,1.15,,,,,2,0,2,0,0,51,51,27,,,,,,,,,,,,,,,,,,,,,,,1262.8865544000873,None,1262.8865544000873,None,1262.3862060999963,None,f,1.2165621999884024,1262.8865544000873,None,,,,,,,b,001,2021_Jun_30_1810,toilet,2021.1.3,99.89830358991625,
180,180,4,-4,0.94,,,,,2,0,2,0,0,52,52,36,,,,,,,,,,,,,,,,,,,,,,,1265.1280648000538,None,1265.1280648000538,None,1264.627732400084,None,j,1.1350513000506908,1265.1280648000538,None,,,,,,,b,001,2021_Jun_30_1810,toilet,2021.1.3,99.89830358991625,
180,0,4,-4,1.0,,,,,2,0,2,0,0,53,53,52,,,,,,,,,,,,,,,,,,,,,,,1267.2795277000405,None,1267.2795277000405,None,1266.7792727000779,None,j,3.0155043000122532,1267.2795277000405,None,,,,,,,b,001,2021_Jun_30_1810,toilet,2021.1.3,99.89830358991625,
0,0,4,-4,1.03,,,,,2,0,2,0,0,54,54,11,,,,,,,,,,,,,,,,,,,,,,,1271.3022481000517,None,1271.3022481000517,None,1270.8019126000581,None,f,1.5687157000647858,1271.3022481000517,None,,,,,,,b,001,2021_Jun_30_1810,toilet,2021.1.3,99.89830358991625,
0,180,4,-4,1.06,,,,,2,0,2,0,0,55,55,26,,,,,,,,,,,,,,,,,,,,,,,1273.8740841000108,None,1273.8740841000108,None,1273.3736597000388,None,f,3.3328242000425234,1273.8740841000108,None,,,,,,,b,001,2021_Jun_30_1810,toilet,2021.1.3,99.89830358991625,
0,180,4,-4,1.06,,,,,2,0,2,0,1,0,56,26,,,,,,,,,,,,,,,,,,,,,,,1278.206934100017,None,1278.206934100017,None,1277.7065882000607,None,f,4.504358500009403,1278.206934100017,None,,,,,,,b,001,2021_Jun_30_1810,toilet,2021.1.3,99.89830358991625,
0,0,4,-4,1.0,,,,,2,0,2,0,1,1,57,10,,,,,,,,,,,,,,,,,,,,,,,1283.7206587000983,None,1283.7206587000983,None,1283.2204119000817,None,j,2.686387100024149,1283.7206587000983,None,,,,,,,b,001,2021_Jun_30_1810,toilet,2021.1.3,99.89830358991625,
180,0,4,-4,1.15,,,,,2,0,2,0,1,2,58,55,,,,,,,,,,,,,,,,,,,,,,,1287.4131595999934,None,1287.4131595999934,None,1286.9128300000448,None,f,0.8340892000123858,1287.4131595999934,None,,,,,,,b,001,2021_Jun_30_1810,toilet,2021.1.3,99.89830358991625,
180,180,4,-4,1.06,,,,,2,0,2,0,1,3,59,40,,,,,,,,,,,,,,,,,,,,,,,1289.2744263000786,None,1289.2744263000786,None,1288.7741661000764,None,f,2.5885655999882147,1289.2744263000786,None,,,,,,,b,001,2021_Jun_30_1810,toilet,2021.1.3,99.89830358991625,
180,180,-4,4,0.94,,,,,2,0,2,0,1,4,60,29,,,,,,,,,,,,,,,,,,,,,,,1292.866853900021,None,1292.866853900021,None,1292.3665189000312,None,f,0.8842579999472946,1292.866853900021,None,,,,,,,b,001,2021_Jun_30_1810,toilet,2021.1.3,99.89830358991625,
0,180,-4,4,1.15,,,,,2,0,2,0,1,5,61,20,,,,,,,,,,,,,,,,,,,,,,,1294.7681436000858,None,1294.7681436000858,None,1294.2678067000816,None,j,1.5588164000073448,1294.7681436000858,None,,,,,,,b,001,2021_Jun_30_1810,toilet,2021.1.3,99.89830358991625,
180,180,-4,4,1.03,,,,,2,0,2,0,1,6,62,32,,,,,,,,,,,,,,,,,,,,,,,1297.3299659000477,None,1297.3299659000477,None,1296.8295620999997,None,j,1.5409327999223024,1297.3299659000477,None,,,,,,,b,001,2021_Jun_30_1810,toilet,2021.1.3,99.89830358991625,
0,180,-4,4,0.94,,,,,2,0,2,0,1,7,63,15,,,,,,,,,,,,,,,,,,,,,,,1299.8715965000447,None,1299.8715965000447,None,1299.3712608000496,None,f,1.9116639998974279,1299.8715965000447,None,,,,,,,b,001,2021_Jun_30_1810,toilet,2021.1.3,99.89830358991625,
180,180,4,-4,1.15,,,,,2,0,2,0,1,8,64,41,,,,,,,,,,,,,,,,,,,,,,,1302.7935909000225,None,1302.7935909000225,None,1302.2932385000167,None,f,0.7015795999905095,1302.7935909000225,None,,,,,,,b,001,2021_Jun_30_1810,toilet,2021.1.3,99.89830358991625,
180,0,4,-4,1.06,,,,,2,0,2,0,1,9,65,54,,,,,,,,,,,,,,,,,,,,,,,1304.5047787000658,None,1304.5047787000658,None,1304.0044058000203,None,f,1.8861791000235826,1304.5047787000658,None,,,,,,,b,001,2021_Jun_30_1810,toilet,2021.1.3,99.89830358991625,
180,180,4,-4,0.97,,,,,2,0,2,0,1,10,66,37,,,,,,,,,,,,,,,,,,,,,,,1307.3967240999918,None,1307.3967240999918,None,1306.896359700011,None,j,0.8823553000111133,1307.3967240999918,None,,,,,,,b,001,2021_Jun_30_1810,toilet,2021.1.3,99.89830358991625,
180,180,4,-4,0.85,,,,,2,0,2,0,1,11,67,35,,,,,,,,,,,,,,,,,,,,,,,1309.307990900008,None,1309.307990900008,None,1308.8076523001073,None,j,0.6029331999598071,1309.307990900008,None,,,,,,,b,001,2021_Jun_30_1810,toilet,2021.1.3,99.89830358991625,
180,0,4,-4,1.03,,,,,2,0,2,0,1,12,68,53,,,,,,,,,,,,,,,,,,,,,,,1310.9191601000493,None,1310.9191601000493,None,1310.4187439000234,None,f,1.119834200013429,1310.9191601000493,None,,,,,,,b,001,2021_Jun_30_1810,toilet,2021.1.3,99.89830358991625,
0,0,-4,4,1.0,,,,,2,0,2,0,1,13,69,3,,,,,,,,,,,,,,,,,,,,,,,1313.0505325000267,None,1313.0505325000267,None,1312.550194600015,None,j,1.4683840000070632,1313.0505325000267,None,,,,,,,b,001,2021_Jun_30_1810,toilet,2021.1.3,99.89830358991625,
0,180,4,-4,0.85,,,,,2,0,2,0,1,14,70,21,,,,,,,,,,,,,,,,,,,,,,,1315.5222009000136,None,1315.5222009000136,None,1315.0218648000155,None,j,0.6928253000369295,1315.5222009000136,None,,,,,,,b,001,2021_Jun_30_1810,toilet,2021.1.3,99.89830358991625,
180,180,4,-4,1.0,,,,,2,0,2,0,1,15,71,38,,,,,,,,,,,,,,,,,,,,,,,1317.233360900078,None,1317.233360900078,None,1316.7330241000745,None,j,1.2057047000853345,1317.233360900078,None,,,,,,,b,001,2021_Jun_30_1810,toilet,2021.1.3,99.89830358991625,
180,0,4,-4,0.94,,,,,2,0,2,0,1,16,72,50,,,,,,,,,,,,,,,,,,,,,,,1319.4648822000017,None,1319.4648822000017,None,1318.9645721000852,None,j,0.6540436999639496,1319.4648822000017,None,,,,,,,b,001,2021_Jun_30_1810,toilet,2021.1.3,99.89830358991625,
180,180,-4,4,0.97,,,,,2,0,2,0,1,17,73,30,,,,,,,,,,,,,,,,,,,,,,,1321.1260020000627,None,1321.1260020000627,None,1320.6256826000754,None,j,1.313295800006017,1321.1260020000627,None,,,,,,,b,001,2021_Jun_30_1810,toilet,2021.1.3,99.89830358991625,
180,180,-4,4,1.15,,,,,2,0,2,0,1,18,74,34,,,,,,,,,,,,,,,,,,,,,,,1323.4675837000832,None,1323.4675837000832,None,1322.9672449000645,None,j,0.6193778000306338,1323.4675837000832,None,,,,,,,b,001,2021_Jun_30_1810,toilet,2021.1.3,99.89830358991625,
0,180,4,-4,1.0,,,,,2,0,2,0,1,19,75,24,,,,,,,,,,,,,,,,,,,,,,,1325.0987241000403,None,1325.0987241000403,None,1324.5983521000016,None,j,1.020222100079991,1325.0987241000403,None,,,,,,,b,001,2021_Jun_30_1810,toilet,2021.1.3,99.89830358991625,
180,0,-4,4,1.03,,,,,2,0,2,0,1,20,76,46,,,,,,,,,,,,,,,,,,,,,,,1327.130157800042,None,1327.130157800042,None,1326.629825500073,None,j,1.1328291000099853,1327.130157800042,None,,,,,,,b,001,2021_Jun_30_1810,toilet,2021.1.3,99.89830358991625,
0,0,-4,4,0.85,,,,,2,0,2,0,1,21,77,0,,,,,,,,,,,,,,,,,,,,,,,1329.2715172000462,None,1329.2715172000462,None,1328.7711802000413,None,f,0.7515235999599099,1329.2715172000462,None,,,,,,,b,001,2021_Jun_30_1810,toilet,2021.1.3,99.89830358991625,
0,0,4,-4,0.94,,,,,2,0,2,0,1,22,78,8,,,,,,,,,,,,,,,,,,,,,,,1331.0227031999966,None,1331.0227031999966,None,1330.5223636000883,None,j,0.5683037999551743,1331.0227031999966,None,,,,,,,b,001,2021_Jun_30_1810,toilet,2021.1.3,99.89830358991625,
180,0,-4,4,0.97,,,,,2,0,2,0,1,23,79,44,,,,,,,,,,,,,,,,,,,,,,,1332.5937937001,None,1332.5937937001,None,1332.0934245000826,None,f,1.5892278000246733,1332.5937937001,None,,,,,,,b,001,2021_Jun_30_1810,toilet,2021.1.3,99.89830358991625,
0,180,4,-4,1.15,,,,,2,0,2,0,1,24,80,27,,,,,,,,,,,,,,,,,,,,,,,1335.195531000034,None,1335.195531000034,None,1334.6952688000165,None,f,1.6273654999677092,1335.195531000034,None,,,,,,,b,001,2021_Jun_30_1810,toilet,2021.1.3,99.89830358991625,
0,0,4,-4,1.03,,,,,2,0,2,0,1,25,81,11,,,,,,,,,,,,,,,,,,,,,,,1337.827309400076,None,1337.827309400076,None,1337.3269768001046,None,j,1.1556012000655755,1337.827309400076,None,,,,,,,b,001,2021_Jun_30_1810,toilet,2021.1.3,99.89830358991625,
0,180,-4,4,0.85,,,,,2,0,2,0,1,26,82,14,,,,,,,,,,,,,,,,,,,,,,,1339.9888570000185,None,1339.9888570000185,None,1339.4884582000086,None,f,0.7861840999685228,1339.9888570000185,None,,,,,,,b,001,2021_Jun_30_1810,toilet,2021.1.3,99.89830358991625,
0,0,4,-4,1.15,,,,,2,0,2,0,1,27,83,13,,,,,,,,,,,,,,,,,,,,,,,1341.7900017000502,None,1341.7900017000502,None,1341.289657699992,None,f,0.7448640000075102,1341.7900017000502,None,,,,,,,b,001,2021_Jun_30_1810,toilet,2021.1.3,99.89830358991625,
180,180,-4,4,0.85,,,,,2,0,2,0,1,28,84,28,,,,,,,,,,,,,,,,,,,,,,,1343.5411788000492,None,1343.5411788000492,None,1343.0408409000374,None,f,0.7856910999398679,1343.5411788000492,None,,,,,,,b,001,2021_Jun_30_1810,toilet,2021.1.3,99.89830358991625,
180,0,4,-4,1.0,,,,,2,0,2,0,1,29,85,52,,,,,,,,,,,,,,,,,,,,,,,1345.3323938000249,None,1345.3323938000249,None,1344.832058000029,None,j,4.242442899965681,1345.3323938000249,None,,,,,,,b,001,2021_Jun_30_1810,toilet,2021.1.3,99.89830358991625,
0,180,-4,4,1.03,,,,,2,0,2,0,1,30,86,18,,,,,,,,,,,,,,,,,,,,,,,1350.5859557000222,None,1350.5859557000222,None,1350.0856159999967,None,j,1.101085599977523,1350.5859557000222,None,,,,,,,b,001,2021_Jun_30_1810,toilet,2021.1.3,99.89830358991625,
0,180,4,-4,1.03,,,,,2,0,2,0,1,31,87,25,,,,,,,,,,,,,,,,,,,,,,,1352.6873787000077,None,1352.6873787000077,None,1352.1870327000506,None,j,16.21546400000807,1352.6873787000077,None,,,,,,,b,001,2021_Jun_30_1810,toilet,2021.1.3,99.89830358991625,
0,180,-4,4,1.06,,,,,2,0,2,0,1,32,88,19,,,,,,,,,,,,,,,,,,,,,,,1369.9090772001073,None,1369.9090772001073,None,1369.4087049000664,None,j,4.001760400016792,1369.9090772001073,None,,,,,,,b,001,2021_Jun_30_1810,toilet,2021.1.3,99.89830358991625,
180,0,-4,4,0.85,,,,,2,0,2,0,1,33,89,42,,,,,,,,,,,,,,,,,,,,,,,1374.9124321000418,None,1374.9124321000418,None,1374.4120926000178,None,f,0.8225839999504387,1374.9124321000418,None,,,,,,,b,001,2021_Jun_30_1810,toilet,2021.1.3,99.89830358991625,
180,0,-4,4,1.06,,,,,2,0,2,0,1,34,90,47,,,,,,,,,,,,,,,,,,,,,,,1376.7636832999997,None,1376.7636832999997,None,1376.2633518000366,None,j,1.0674937999574468,1376.7636832999997,None,,,,,,,b,001,2021_Jun_30_1810,toilet,2021.1.3,99.89830358991625,
0,0,4,-4,0.85,,,,,2,0,2,0,1,35,91,7,,,,,,,,,,,,,,,,,,,,,,,1378.8351750000147,None,1378.8351750000147,None,1378.3347855000757,None,j,0.5796417000237852,1378.8351750000147,None,,,,,,,b,001,2021_Jun_30_1810,toilet,2021.1.3,99.89830358991625,
0,0,-4,4,0.97,,,,,2,0,2,0,1,36,92,2,,,,,,,,,,,,,,,,,,,,,,,1380.4161567999981,None,1380.4161567999981,None,1379.915817100089,None,f,3.254949099966325,1380.4161567999981,None,,,,,,,b,001,2021_Jun_30_1810,toilet,2021.1.3,99.89830358991625,
0,0,4,-4,1.06,,,,,2,0,2,0,1,37,93,12,,,,,,,,,,,,,,,,,,,,,,,1384.6990603000158,None,1384.6990603000158,None,1384.1988063000608,None,f,1.1158252999885008,1384.6990603000158,None,,,,,,,b,001,2021_Jun_30_1810,toilet,2021.1.3,99.89830358991625,
180,0,-4,4,1.15,,,,,2,0,2,0,1,38,94,48,,,,,,,,,,,,,,,,,,,,,,,1386.8204945001053,None,1386.8204945001053,None,1386.3201903000008,None,j,0.8823896000394598,1386.8204945001053,None,,,,,,,b,001,2021_Jun_30_1810,toilet,2021.1.3,99.89830358991625,
0,180,-4,4,0.97,,,,,2,0,2,0,1,39,95,16,,,,,,,,,,,,,,,,,,,,,,,1388.7117784000002,None,1388.7117784000002,None,1388.211440800107,None,f,0.9111218999605626,1388.7117784000002,None,,,,,,,b,001,2021_Jun_30_1810,toilet,2021.1.3,99.89830358991625,
180,180,4,-4,1.03,,,,,2,0,2,0,1,40,96,39,,,,,,,,,,,,,,,,,,,,,,,1390.6330830000807,None,1390.6330830000807,None,1390.132745900075,None,f,1.7257059999974445,1390.6330830000807,None,,,,,,,b,001,2021_Jun_30_1810,toilet,2021.1.3,99.89830358991625,
180,0,-4,4,1.0,,,,,2,0,2,0,1,41,97,45,,,,,,,,,,,,,,,,,,,,,,,1393.3650089000585,None,1393.3650089000585,None,1392.8646249000449,None,j,1.1858135999646038,1393.3650089000585,None,,,,,,,b,001,2021_Jun_30_1810,toilet,2021.1.3,99.89830358991625,
0,180,-4,4,1.0,,,,,2,0,2,0,1,42,98,17,,,,,,,,,,,,,,,,,,,,,,,1395.5564165000105,None,1395.5564165000105,None,1395.0560776001075,None,j,2.290541599970311,1395.5564165000105,None,,,,,,,b,001,2021_Jun_30_1810,toilet,2021.1.3,99.89830358991625,
0,0,4,-4,0.97,,,,,2,0,2,0,1,43,99,9,,,,,,,,,,,,,,,,,,,,,,,1398.858651000075,None,1398.858651000075,None,1398.3583378000185,None,j,1.0362813000101596,1398.858651000075,None,,,,,,,b,001,2021_Jun_30_1810,toilet,2021.1.3,99.89830358991625,
180,0,-4,4,0.94,,,,,2,0,2,0,1,44,100,43,,,,,,,,,,,,,,,,,,,,,,,1400.9000485000433,None,1400.9000485000433,None,1400.3997887000442,None,f,1.074723600060679,1400.9000485000433,None,,,,,,,b,001,2021_Jun_30_1810,toilet,2021.1.3,99.89830358991625,
180,180,-4,4,1.06,,,,,2,0,2,0,1,45,101,33,,,,,,,,,,,,,,,,,,,,,,,1402.981444300036,None,1402.981444300036,None,1402.4811133000767,None,j,1.5375383999198675,1402.981444300036,None,,,,,,,b,001,2021_Jun_30_1810,toilet,2021.1.3,99.89830358991625,
180,0,4,-4,0.85,,,,,2,0,2,0,1,46,102,49,,,,,,,,,,,,,,,,,,,,,,,1405.5331702000694,None,1405.5331702000694,None,1405.0328385001048,None,j,1.609796900069341,1405.5331702000694,None,,,,,,,b,001,2021_Jun_30_1810,toilet,2021.1.3,99.89830358991625,
0,0,-4,4,1.06,,,,,2,0,2,0,1,47,103,5,,,,,,,,,,,,,,,,,,,,,,,1408.1549560000421,None,1408.1549560000421,None,1407.6546878000954,None,j,2.059819499962032,1408.1549560000421,None,,,,,,,b,001,2021_Jun_30_1810,toilet,2021.1.3,99.89830358991625,
0,180,4,-4,0.94,,,,,2,0,2,0,1,48,104,22,,,,,,,,,,,,,,,,,,,,,,,1411.2170226000017,None,1411.2170226000017,None,1410.7166856999975,None,j,1.6379983000224456,1411.2170226000017,None,,,,,,,b,001,2021_Jun_30_1810,toilet,2021.1.3,99.89830358991625,
180,0,4,-4,0.97,,,,,2,0,2,0,1,49,105,51,,,,,,,,,,,,,,,,,,,,,,,1413.8788297000574,None,1413.8788297000574,None,1413.3785648000194,None,j,5.520136900013313,1413.8788297000574,None,,,,,,,b,001,2021_Jun_30_1810,toilet,2021.1.3,99.89830358991625,
0,0,-4,4,1.15,,,,,2,0,2,0,1,50,106,6,,,,,,,,,,,,,,,,,,,,,,,1420.4232631000923,None,1420.4232631000923,None,1419.9229190000333,None,j,1.759498400031589,1420.4232631000923,None,,,,,,,b,001,2021_Jun_30_1810,toilet,2021.1.3,99.89830358991625,
0,0,-4,4,1.03,,,,,2,0,2,0,1,51,107,4,,,,,,,,,,,,,,,,,,,,,,,1423.1851718000835,None,1423.1851718000835,None,1422.684832100058,None,j,1.2056145999813452,1423.1851718000835,None,,,,,,,b,001,2021_Jun_30_1810,toilet,2021.1.3,99.89830358991625,
0,0,-4,4,0.94,,,,,2,0,2,0,1,52,108,1,,,,,,,,,,,,,,,,,,,,,,,1425.3966300000902,None,1425.3966300000902,None,1424.896286000032,None,f,0.8822860000655055,1425.3966300000902,None,,,,,,,b,001,2021_Jun_30_1810,toilet,2021.1.3,99.89830358991625,
180,180,-4,4,1.0,,,,,2,0,2,0,1,53,109,31,,,,,,,,,,,,,,,,,,,,,,,1427.2879085000604,None,1427.2879085000604,None,1426.7875726000639,None,j,1.342875000089407,1427.2879085000604,None,,,,,,,b,001,2021_Jun_30_1810,toilet,2021.1.3,99.89830358991625,
0,180,4,-4,0.97,,,,,2,0,2,0,1,54,110,23,,,,,,,,,,,,,,,,,,,,,,,1429.639600399998,None,1429.639600399998,None,1429.1392336999997,None,j,1.0391817000927404,1429.639600399998,None,,,,,,,b,001,2021_Jun_30_1810,toilet,2021.1.3,99.89830358991625,
180,180,4,-4,0.94,,,,,2,0,2,0,1,55,111,36,,,,,,,,,,,,,,,,,,,,,,,1431.6908966000192,None,1431.6908966000192,None,1431.190554800094,None,j,1.5478998000035062,1431.6908966000192,None,,,,,,,b,001,2021_Jun_30_1810,toilet,2021.1.3,99.89830358991625,
,,,,,,,,,2,0,2,0,,,,,,,,,,,,,,,,,,,,,,,,,,,,,,,,,,,,,1433.2519475000445,None,space,21.010843799915165,1433.2519475000445,None,b,001,2021_Jun_30_1810,toilet,2021.1.3,99.89830358991625,
180,180,-4,4,1.15,,,,,3,0,3,0,0,0,0,34,,,,,,,,,,,,,,,,,1454.2761915000156,None,space,0.6907623999286443,1454.2761915000156,None,1455.9773428000044,None,1455.9773428000044,None,1455.4770047999918,None,j,1.869517600047402,1455.9773428000044,None,,,,,,,b,001,2021_Jun_30_1810,toilet,2021.1.3,99.89830358991625,
180,180,4,-4,1.06,,,,,3,0,3,0,0,1,1,40,,,,,,,,,,,,,,,,,,,,,,,1458.859386300086,None,1458.859386300086,None,1458.3590462000575,None,f,0.7954617999494076,1458.859386300086,None,,,,,,,b,001,2021_Jun_30_1810,toilet,2021.1.3,99.89830358991625,
180,180,-4,4,0.85,,,,,3,0,3,0,0,2,2,28,,,,,,,,,,,,,,,,,,,,,,,1460.6605128000956,None,1460.6605128000956,None,1460.1601811000146,None,f,0.8822911999886855,1460.6605128000956,None,,,,,,,b,001,2021_Jun_30_1810,toilet,2021.1.3,99.89830358991625,
180,180,4,-4,1.03,,,,,3,0,3,0,0,3,3,39,,,,,,,,,,,,,,,,,,,,,,,1462.5517947000917,None,1462.5517947000917,None,1462.0514600001043,None,f,3.3590638000750914,1462.5517947000917,None,,,,,,,b,001,2021_Jun_30_1810,toilet,2021.1.3,99.89830358991625,
0,180,4,-4,1.06,,,,,3,0,3,0,0,4,4,26,,,,,,,,,,,,,,,,,,,,,,,1466.9147503999993,None,1466.9147503999993,None,1466.414412100101,None,f,1.412219800055027,1466.9147503999993,None,,,,,,,b,001,2021_Jun_30_1810,toilet,2021.1.3,99.89830358991625,
180,0,4,-4,0.97,,,,,3,0,3,0,0,5,5,51,,,,,,,,,,,,,,,,,,,,,,,1469.336391500081,None,1469.336391500081,None,1468.8360664000502,None,j,3.2464851000113413,1469.336391500081,None,,,,,,,b,001,2021_Jun_30_1810,toilet,2021.1.3,99.89830358991625,
0,0,-4,4,0.97,,,,,3,0,3,0,0,6,6,2,,,,,,,,,,,,,,,,,,,,,,,1473.589281600085,None,1473.589281600085,None,1473.0889345000032,None,f,3.2494777999818325,1473.589281600085,None,,,,,,,b,001,2021_Jun_30_1810,toilet,2021.1.3,99.89830358991625,
0,180,-4,4,0.97,,,,,3,0,3,0,0,7,7,16,,,,,,,,,,,,,,,,,,,,,,,1477.842158100102,None,1477.842158100102,None,1477.3418156000553,None,f,12.308941600029357,1477.842158100102,None,,,,,,,b,001,2021_Jun_30_1810,toilet,2021.1.3,99.89830358991625,
180,180,4,-4,1.0,,,,,3,0,3,0,0,8,8,38,,,,,,,,,,,,,,,,,,,,,,,1491.1611784000415,None,1491.1611784000415,None,1490.6609231000766,None,j,2.797714399988763,1491.1611784000415,None,,,,,,,b,001,2021_Jun_30_1810,toilet,2021.1.3,99.89830358991625,
180,0,-4,4,0.85,,,,,3,0,3,0,0,9,9,42,,,,,,,,,,,,,,,,,,,,,,,1494.9837701000506,None,1494.9837701000506,None,1494.483422200079,None,f,0.8311227998929098,1494.9837701000506,None,,,,,,,b,001,2021_Jun_30_1810,toilet,2021.1.3,99.89830358991625,
0,0,4,-4,1.15,,,,,3,0,3,0,0,10,10,13,,,,,,,,,,,,,,,,,,,,,,,1496.8150994000025,None,1496.8150994000025,None,1496.3146673000883,None,f,0.727714900043793,1496.8150994000025,None,,,,,,,b,001,2021_Jun_30_1810,toilet,2021.1.3,99.89830358991625,
0,0,-4,4,0.85,,,,,3,0,3,0,0,11,11,0,,,,,,,,,,,,,,,,,,,,,,,1498.5561855999986,None,1498.5561855999986,None,1498.0558455000864,None,f,0.7784917999524623,1498.5561855999986,None,,,,,,,b,001,2021_Jun_30_1810,toilet,2021.1.3,99.89830358991625,
0,0,-4,4,1.03,,,,,3,0,3,0,0,12,12,4,,,,,,,,,,,,,,,,,,,,,,,1500.3373908000067,None,1500.3373908000067,None,1499.8370533999987,None,j,1.1575040000025183,1500.3373908000067,None,,,,,,,b,001,2021_Jun_30_1810,toilet,2021.1.3,99.89830358991625,
0,0,-4,4,1.0,,,,,3,0,3,0,0,13,13,3,,,,,,,,,,,,,,,,,,,,,,,1502.5188669000054,None,1502.5188669000054,None,1502.0185294999974,None,j,1.0241530999774113,1502.5188669000054,None,,,,,,,b,001,2021_Jun_30_1810,toilet,2021.1.3,99.89830358991625,
180,0,4,-4,1.0,,,,,3,0,3,0,0,14,14,52,,,,,,,,,,,,,,,,,,,,,,,1504.57033830008,None,1504.57033830008,None,1504.0700074000051,None,j,3.85255819989834,1504.57033830008,None,,,,,,,b,001,2021_Jun_30_1810,toilet,2021.1.3,99.89830358991625,
180,180,-4,4,1.06,,,,,3,0,3,0,0,15,15,33,,,,,,,,,,,,,,,,,,,,,,,1509.4335560000036,None,1509.4335560000036,None,1508.9332138000755,None,j,0.8612405000021681,1509.4335560000036,None,,,,,,,b,001,2021_Jun_30_1810,toilet,2021.1.3,99.89830358991625,
180,0,-4,4,0.97,,,,,3,0,3,0,0,16,16,44,,,,,,,,,,,,,,,,,,,,,,,1511.3048216000898,None,1511.3048216000898,None,1510.804564399994,None,f,11.229991600033827,1511.3048216000898,None,,,,,,,b,001,2021_Jun_30_1810,toilet,2021.1.3,99.89830358991625,
0,180,4,-4,0.85,,,,,3,0,3,0,0,17,17,21,,,,,,,,,,,,,,,,,,,,,,,1523.5431123001035,None,1523.5431123001035,None,1523.042772200075,None,j,0.7516554000321776,1523.5431123001035,None,,,,,,,b,001,2021_Jun_30_1810,toilet,2021.1.3,99.89830358991625,
180,0,-4,4,1.15,,,,,3,0,3,0,0,18,18,48,,,,,,,,,,,,,,,,,,,,,,,1525.2942980000516,None,1525.2942980000516,None,1524.793961300049,None,j,0.9208170999772847,1525.2942980000516,None,,,,,,,b,001,2021_Jun_30_1810,toilet,2021.1.3,99.89830358991625,
0,180,-4,4,1.06,,,,,3,0,3,0,0,19,19,19,,,,,,,,,,,,,,,,,,,,,,,1527.2256432001013,None,1527.2256432001013,None,1526.7253523000982,None,j,1.5810306000057608,1527.2256432001013,None,,,,,,,b,001,2021_Jun_30_1810,toilet,2021.1.3,99.89830358991625,
180,0,4,-4,0.94,,,,,3,0,3,0,0,20,20,50,,,,,,,,,,,,,,,,,,,,,,,1529.8073527000379,None,1529.8073527000379,None,1529.3070135000162,None,j,0.9994752999627963,1529.8073527000379,None,,,,,,,b,001,2021_Jun_30_1810,toilet,2021.1.3,99.89830358991625,
0,180,4,-4,1.03,,,,,3,0,3,0,0,21,21,25,,,,,,,,,,,,,,,,,,,,,,,1531.818714800058,None,1531.818714800058,None,1531.3183731000172,None,f,1.8680003000190482,1531.818714800058,None,,,,,,,b,001,2021_Jun_30_1810,toilet,2021.1.3,99.89830358991625,
0,180,4,-4,1.15,,,,,3,0,3,0,0,22,22,27,,,,,,,,,,,,,,,,,,,,,,,1534.690730900038,None,1534.690730900038,None,1534.1903399000876,None,f,0.7719988999888301,1534.690730900038,None,,,,,,,b,001,2021_Jun_30_1810,toilet,2021.1.3,99.89830358991625,
0,0,4,-4,1.0,,,,,3,0,3,0,0,23,23,10,,,,,,,,,,,,,,,,,,,,,,,1536.4718689000001,None,1536.4718689000001,None,1535.9715336000081,None,j,1.1509068999439478,1536.4718689000001,None,,,,,,,b,001,2021_Jun_30_1810,toilet,2021.1.3,99.89830358991625,
0,0,4,-4,0.97,,,,,3,0,3,0,0,24,24,9,,,,,,,,,,,,,,,,,,,,,,,1538.6233280000743,None,1538.6233280000743,None,1538.1229835000122,None,j,1.015561299980618,1538.6233280000743,None,,,,,,,b,001,2021_Jun_30_1810,toilet,2021.1.3,99.89830358991625,
180,0,-4,4,1.03,,,,,3,0,3,0,0,25,25,46,,,,,,,,,,,,,,,,,,,,,,,1540.6647089000326,None,1540.6647089000326,None,1540.1644569000928,None,j,1.3899959999835119,1540.6647089000326,None,,,,,,,b,001,2021_Jun_30_1810,toilet,2021.1.3,99.89830358991625,
0,180,-4,4,1.15,,,,,3,0,3,0,0,26,26,20,,,,,,,,,,,,,,,,,,,,,,,1543.0563263000222,None,1543.0563263000222,None,1542.5560281000799,None,j,0.9503766000270844,1543.0563263000222,None,,,,,,,b,001,2021_Jun_30_1810,toilet,2021.1.3,99.89830358991625,
0,180,-4,4,1.03,,,,,3,0,3,0,0,27,27,18,,,,,,,,,,,,,,,,,,,,,,,1545.0076493000379,None,1545.0076493000379,None,1544.5073112000246,None,j,2.5671735999640077,1545.0076493000379,None,,,,,,,b,001,2021_Jun_30_1810,toilet,2021.1.3,99.89830358991625,
0,0,-4,4,1.15,,,,,3,0,3,0,0,28,28,6,,,,,,,,,,,,,,,,,,,,,,,1548.5901527000824,None,1548.5901527000824,None,1548.0897369000595,None,j,0.8885026999050751,1548.5901527000824,None,,,,,,,b,001,2021_Jun_30_1810,toilet,2021.1.3,99.89830358991625,
180,180,4,-4,0.85,,,,,3,0,3,0,0,29,29,35,,,,,,,,,,,,,,,,,,,,,,,1550.4913637000136,None,1550.4913637000136,None,1549.9910386000993,None,j,0.7632490999531001,1550.4913637000136,None,,,,,,,b,001,2021_Jun_30_1810,toilet,2021.1.3,99.89830358991625,
180,0,-4,4,0.94,,,,,3,0,3,0,0,30,30,43,,,,,,,,,,,,,,,,,,,,,,,1552.26256250008,None,1552.26256250008,None,1551.7622360000387,None,f,1.0242546000517905,1552.26256250008,None,,,,,,,b,001,2021_Jun_30_1810,toilet,2021.1.3,99.89830358991625,
180,180,-4,4,0.97,,,,,3,0,3,0,0,31,31,30,,,,,,,,,,,,,,,,,,,,,,,1554.3139556000242,None,1554.3139556000242,None,1553.8136189000215,None,f,1.436904100002721,1554.3139556000242,None,,,,,,,b,001,2021_Jun_30_1810,toilet,2021.1.3,99.89830358991625,
0,0,4,-4,0.94,,,,,3,0,3,0,0,32,32,8,,,,,,,,,,,,,,,,,,,,,,,1556.765693500056,None,1556.765693500056,None,1556.265277700033,None,j,0.7289813000243157,1556.765693500056,None,,,,,,,b,001,2021_Jun_30_1810,toilet,2021.1.3,99.89830358991625,
180,0,4,-4,0.85,,,,,3,0,3,0,0,33,33,49,,,,,,,,,,,,,,,,,,,,,,,1558.49679200002,None,1558.49679200002,None,1557.996453300002,None,j,0.5819651000201702,1558.49679200002,None,,,,,,,b,001,2021_Jun_30_1810,toilet,2021.1.3,99.89830358991625,
0,0,4,-4,1.03,,,,,3,0,3,0,0,34,34,11,,,,,,,,,,,,,,,,,,,,,,,1560.087864800007,None,1560.087864800007,None,1559.587530000019,None,f,0.8468235000036657,1560.087864800007,None,,,,,,,b,001,2021_Jun_30_1810,toilet,2021.1.3,99.89830358991625,
180,180,4,-4,0.94,,,,,3,0,3,0,0,35,35,36,,,,,,,,,,,,,,,,,,,,,,,1561.9491305000847,None,1561.9491305000847,None,1561.448788800044,None,j,0.7456650000531226,1561.9491305000847,None,,,,,,,b,001,2021_Jun_30_1810,toilet,2021.1.3,99.89830358991625,
180,180,-4,4,0.94,,,,,3,0,3,0,0,36,36,29,,,,,,,,,,,,,,,,,,,,,,,1563.720359900035,None,1563.720359900035,None,1563.2200247000437,None,f,1.038380300044082,1563.720359900035,None,,,,,,,b,001,2021_Jun_30_1810,toilet,2021.1.3,99.89830358991625,
180,0,4,-4,1.03,,,,,3,0,3,0,0,37,37,53,,,,,,,,,,,,,,,,,,,,,,,1565.7717191000702,None,1565.7717191000702,None,1565.2713750000112,None,f,2.9549124999903142,1565.7717191000702,None,,,,,,,b,001,2021_Jun_30_1810,toilet,2021.1.3,99.89830358991625,
180,0,4,-4,1.06,,,,,3,0,3,0,0,38,38,54,,,,,,,,,,,,,,,,,,,,,,,1569.7444098000415,None,1569.7444098000415,None,1569.244072200032,None,f,1.0303186000091955,1569.7444098000415,None,,,,,,,b,001,2021_Jun_30_1810,toilet,2021.1.3,99.89830358991625,
180,0,4,-4,1.15,,,,,3,0,3,0,0,39,39,55,,,,,,,,,,,,,,,,,,,,,,,1571.775824100012,None,1571.775824100012,None,1571.2854848999996,None,f,0.7748039000434801,1571.775824100012,None,,,,,,,b,001,2021_Jun_30_1810,toilet,2021.1.3,99.89830358991625,
180,0,-4,4,1.0,,,,,3,0,3,0,0,40,40,45,,,,,,,,,,,,,,,,,,,,,,,1573.5569885000587,None,1573.5569885000587,None,1573.056648900034,None,j,5.3297868999652565,1573.5569885000587,None,,,,,,,b,001,2021_Jun_30_1810,toilet,2021.1.3,99.89830358991625,
0,0,4,-4,0.85,,,,,3,0,3,0,0,41,41,7,,,,,,,,,,,,,,,,,,,,,,,1579.9012864000397,None,1579.9012864000397,None,1579.3909791000187,None,j,0.7615362999495119,1579.9012864000397,None,,,,,,,b,001,2021_Jun_30_1810,toilet,2021.1.3,99.89830358991625,
0,180,-4,4,0.94,,,,,3,0,3,0,0,42,42,15,,,,,,,,,,,,,,,,,,,,,,,1581.6625061000232,None,1581.6625061000232,None,1581.1621408000356,None,f,1.8641636000247672,1581.6625061000232,None,,,,,,,b,001,2021_Jun_30_1810,toilet,2021.1.3,99.89830358991625,
180,180,4,-4,1.15,,,,,3,0,3,0,0,43,43,41,,,,,,,,,,,,,,,,,,,,,,,1584.534500000067,None,1584.534500000067,None,1584.0340877000708,None,f,0.6723943999968469,1584.534500000067,None,,,,,,,b,001,2021_Jun_30_1810,toilet,2021.1.3,99.89830358991625,
0,180,4,-4,1.0,,,,,3,0,3,0,0,44,44,24,,,,,,,,,,,,,,,,,,,,,,,1586.2256066000555,None,1586.2256066000555,None,1585.7252328000031,None,j,0.8050422000233084,1586.2256066000555,None,,,,,,,b,001,2021_Jun_30_1810,toilet,2021.1.3,99.89830358991625,
180,180,-4,4,1.03,,,,,3,0,3,0,0,45,45,32,,,,,,,,,,,,,,,,,,,,,,,1588.0368010000093,None,1588.0368010000093,None,1587.5364587000804,None,j,1.361848899978213,1588.0368010000093,None,,,,,,,b,001,2021_Jun_30_1810,toilet,2021.1.3,99.89830358991625,
0,180,4,-4,0.97,,,,,3,0,3,0,0,46,46,23,,,,,,,,,,,,,,,,,,,,,,,1590.3983956000302,None,1590.3983956000302,None,1589.898057000013,None,j,1.9443956000031903,1590.3983956000302,None,,,,,,,b,001,2021_Jun_30_1810,toilet,2021.1.3,99.89830358991625,
0,180,-4,4,1.0,,,,,3,0,3,0,0,47,47,17,,,,,,,,,,,,,,,,,,,,,,,1593.3604879000923,None,1593.3604879000923,None,1592.8600861000596,None,j,4.262217199895531,1593.3604879000923,None,,,,,,,b,001,2021_Jun_30_1810,toilet,2021.1.3,99.89830358991625,
0,0,4,-4,1.06,,,,,3,0,3,0,0,48,48,12,,,,,,,,,,,,,,,,,,,,,,,1598.6239720000885,None,1598.6239720000885,None,1598.133637699997,None,f,2.774736999999732,1598.6239720000885,None,,,,,,,b,001,2021_Jun_30_1810,toilet,2021.1.3,99.89830358991625,
180,180,-4,4,1.0,,,,,3,0,3,0,0,49,49,31,,,,,,,,,,,,,,,,,,,,,,,1602.4165410000132,None,1602.4165410000132,None,1601.9162031000014,None,j,5.3662359999725595,1602.4165410000132,None,,,,,,,b,001,2021_Jun_30_1810,toilet,2021.1.3,99.89830358991625,
180,0,-4,4,1.06,,,,,3,0,3,0,0,50,50,47,,,,,,,,,,,,,,,,,,,,,,,1608.8009408999933,None,1608.8009408999933,None,1608.300558899995,None,j,1.7976579000242054,1608.8009408999933,None,,,,,,,b,001,2021_Jun_30_1810,toilet,2021.1.3,99.89830358991625,
180,180,4,-4,0.97,,,,,3,0,3,0,0,51,51,37,,,,,,,,,,,,,,,,,,,,,,,1611.6027623000555,None,1611.6027623000555,None,1611.1024204000132,None,j,5.891791300033219,1611.6027623000555,None,,,,,,,b,001,2021_Jun_30_1810,toilet,2021.1.3,99.89830358991625,
0,180,-4,4,0.85,,,,,3,0,3,0,0,52,52,14,,,,,,,,,,,,,,,,,,,,,,,1618.4974309999961,None,1618.4974309999961,None,1617.997097000014,None,f,1.6852273000404239,1618.4974309999961,None,,,,,,,b,001,2021_Jun_30_1810,toilet,2021.1.3,99.89830358991625,
0,0,-4,4,0.94,,,,,3,0,3,0,0,53,53,1,,,,,,,,,,,,,,,,,,,,,,,1621.1992959000636,None,1621.1992959000636,None,1620.698922200012,None,f,3.335402700002305,1621.1992959000636,None,,,,,,,b,001,2021_Jun_30_1810,toilet,2021.1.3,99.89830358991625,
0,180,4,-4,0.94,,,,,3,0,3,0,0,54,54,22,,,,,,,,,,,,,,,,,,,,,,,1625.5422040000558,None,1625.5422040000558,None,1625.0418666000478,None,j,2.784560199943371,1625.5422040000558,None,,,,,,,b,001,2021_Jun_30_1810,toilet,2021.1.3,99.89830358991625,
0,0,-4,4,1.06,,,,,3,0,3,0,0,55,55,5,,,,,,,,,,,,,,,,,,,,,,,1629.3547940000426,None,1629.3547940000426,None,1628.8545181000372,None,j,3.2917924999492243,1629.3547940000426,None,,,,,,,b,001,2021_Jun_30_1810,toilet,2021.1.3,99.89830358991625,
180,180,-4,4,0.85,,,,,3,0,3,0,1,0,56,28,,,,,,,,,,,,,,,,,,,,,,,1633.647700300091,None,1633.647700300091,None,1633.147358300048,None,f,0.6469436000334099,1633.647700300091,None,,,,,,,b,001,2021_Jun_30_1810,toilet,2021.1.3,99.89830358991625,
0,180,-4,4,1.03,,,,,3,0,3,0,1,1,57,18,,,,,,,,,,,,,,,,,,,,,,,1635.298814900103,None,1635.298814900103,None,1634.7984782001004,None,j,0.659859300008975,1635.298814900103,None,,,,,,,b,001,2021_Jun_30_1810,toilet,2021.1.3,99.89830358991625,
180,180,-4,4,1.15,,,,,3,0,3,0,1,2,58,34,,,,,,,,,,,,,,,,,,,,,,,1636.9699432000052,None,1636.9699432000052,None,1636.4696809001034,None,j,0.716649999958463,1636.9699432000052,None,,,,,,,b,001,2021_Jun_30_1810,toilet,2021.1.3,99.89830358991625,
