ori_st,ori_pr,xpos_st,xpos_pr,size,trials_3.thisRepN,trials_3.thisTrialN,trials_3.thisN,trials_3.thisIndex,trials_2.thisRepN,trials_2.thisTrialN,trials_2.thisN,trials_2.thisIndex,trials.thisRepN,trials.thisTrialN,trials.thisN,trials.thisIndex,wel_pra.started,wel_pra.stopped,resp_wel.keys,resp_wel.rt,resp_wel.started,resp_wel.stopped,standard_pra.started,standard_pra.stopped,prove_pra.started,prove_pra.stopped,fixation.started,fixation.stopped,resp_pra.keys,resp_pra.rt,resp_pra.started,resp_pra.stopped,instr.started,instr.stopped,key_resp_2.keys,key_resp_2.rt,key_resp_2.started,key_resp_2.stopped,standard.started,standard.stopped,probe.started,probe.stopped,text.started,text.stopped,resp.keys,resp.rt,resp.started,resp.stopped,text_2.started,text_2.stopped,key_resp.keys,key_resp.rt,key_resp.started,key_resp.stopped,text_3.started,text_3.stopped,key_resp_3.keys,key_resp_3.rt,key_resp_3.started,key_resp_3.stopped,participant,session,date,expName,psychopyVersion,frameRate,
,,,,,,,,,,,,,,,,,46.67564439999842,None,space,76.5482591,46.67564439999842,None,,,,,,,,,,,,,,,,,,,,,,,,,,,,,,,,,,,,,,,k,001,2021_Jul_06_1616,toilet,2021.1.3,99.92974938530296,
0,0,-4,4,1.15,0,0,0,2,,,,,,,,,,,,,,,124.24910649999947,None,124.24910649999947,None,123.74874379999892,None,j,1.678754200000185,124.24910649999947,None,,,,,,,,,,,,,,,,,,,,,,,,,,,,,k,001,2021_Jul_06_1616,toilet,2021.1.3,99.92974938530296,
0,180,-4,4,0.85,0,1,1,4,,,,,,,,,,,,,,,126.93099219999931,None,126.93099219999931,None,126.43065639999986,None,f,0.7730119000007107,126.93099219999931,None,,,,,,,,,,,,,,,,,,,,,,,,,,,,,k,001,2021_Jul_06_1616,toilet,2021.1.3,99.92974938530296,
180,180,-4,4,1.15,0,2,2,10,,,,,,,,,,,,,,,128.71210539999993,None,128.71210539999993,None,128.2118021999995,None,j,0.4957494999998744,128.71210539999993,None,,,,,,,,,,,,,,,,,,,,,,,,,,,,,k,001,2021_Jul_06_1616,toilet,2021.1.3,99.92974938530296,
180,0,-4,4,1.15,0,3,3,14,,,,,,,,,,,,,,,130.21312599999874,None,130.21312599999874,None,129.71279149999827,None,j,0.5148962999992364,130.21312599999874,None,,,,,,,,,,,,,,,,,,,,,,,,,,,,,k,001,2021_Jul_06_1616,toilet,2021.1.3,99.92974938530296,
180,180,-4,4,0.85,0,4,4,8,,,,,,,,,,,,,,,131.74416889999884,None,131.74416889999884,None,131.243835199999,None,f,0.4558595999988029,131.74416889999884,None,,,,,,,,,,,,,,,,,,,,,,,,,,,,,k,001,2021_Jul_06_1616,toilet,2021.1.3,99.92974938530296,
180,0,-4,4,0.85,0,5,5,13,,,,,,,,,,,,,,,133.21517459999995,None,133.21517459999995,None,132.71482399999877,None,f,0.45684849999997823,133.21517459999995,None,,,,,,,,,,,,,,,,,,,,,,,,,,,,,k,001,2021_Jul_06_1616,toilet,2021.1.3,99.92974938530296,
0,180,4,-4,1.15,0,6,6,7,,,,,,,,,,,,,,,134.68623619999926,None,134.68623619999926,None,134.1858149999989,None,f,0.6338130999993155,134.68623619999926,None,,,,,,,,,,,,,,,,,,,,,,,,,,,,,k,001,2021_Jul_06_1616,toilet,2021.1.3,99.92974938530296,
0,0,-4,4,0.85,0,7,7,0,,,,,,,,,,,,,,,136.3372786,None,136.3372786,None,135.8369120999996,None,f,0.502683499998966,136.3372786,None,,,,,,,,,,,,,,,,,,,,,,,,,,,,,k,001,2021_Jul_06_1616,toilet,2021.1.3,99.92974938530296,
0,180,-4,4,1.15,0,8,8,6,,,,,,,,,,,,,,,137.84830619999957,None,137.84830619999957,None,137.34796079999978,None,j,0.3996110999996745,137.84830619999957,None,,,,,,,,,,,,,,,,,,,,,,,,,,,,,k,001,2021_Jul_06_1616,toilet,2021.1.3,99.92974938530296,
0,0,4,-4,1.15,0,9,9,3,,,,,,,,,,,,,,,139.24924959999953,None,139.24924959999953,None,138.7489119999991,None,f,0.4227186999996775,139.24924959999953,None,,,,,,,,,,,,,,,,,,,,,,,,,,,,,k,001,2021_Jul_06_1616,toilet,2021.1.3,99.92974938530296,
180,0,-4,4,0.85,0,10,10,12,,,,,,,,,,,,,,,140.6902328999986,None,140.6902328999986,None,140.18989269999838,None,f,0.469719199998508,140.6902328999986,None,,,,,,,,,,,,,,,,,,,,,,,,,,,,,k,001,2021_Jul_06_1616,toilet,2021.1.3,99.92974938530296,
0,0,4,-4,0.85,0,11,11,1,,,,,,,,,,,,,,,142.17132239999955,None,142.17132239999955,None,141.67096179999862,None,j,0.3966047999983857,142.17132239999955,None,,,,,,,,,,,,,,,,,,,,,,,,,,,,,k,001,2021_Jul_06_1616,toilet,2021.1.3,99.92974938530296,
180,180,-4,4,1.15,0,12,12,11,,,,,,,,,,,,,,,143.58218509999824,None,143.58218509999824,None,143.08185349999985,None,j,0.4418485000005603,143.58218509999824,None,,,,,,,,,,,,,,,,,,,,,,,,,,,,,k,001,2021_Jul_06_1616,toilet,2021.1.3,99.92974938530296,
0,180,4,-4,0.85,0,13,13,5,,,,,,,,,,,,,,,145.03317259999858,None,145.03317259999858,None,144.5328312999991,None,j,0.47876759999962815,145.03317259999858,None,,,,,,,,,,,,,,,,,,,,,,,,,,,,,k,001,2021_Jul_06_1616,toilet,2021.1.3,99.92974938530296,
180,180,-4,4,0.85,0,14,14,9,,,,,,,,,,,,,,,146.51417579999907,None,146.51417579999907,None,146.0138350999987,None,f,0.38981650000096124,146.51417579999907,None,,,,,,,,,,,,,,,,,,,,,,,,,,,,,k,001,2021_Jul_06_1616,toilet,2021.1.3,99.92974938530296,
180,0,-4,4,1.15,0,15,15,15,,,,,,,,,,,,,,,147.90511479999986,None,147.90511479999986,None,147.40478109999822,None,j,0.3908487000007881,147.90511479999986,None,,,,,,,,,,,,,,,,,,,,,,,,,,,,,k,001,2021_Jul_06_1616,toilet,2021.1.3,99.92974938530296,
180,0,4,-4,0.97,,,,,0,0,0,0,0,0,0,51,,,,,,,,,,,,,,,,,148.31543949999832,None,space,72.73250460000054,148.31543949999832,None,222.06549409999934,None,222.06549409999934,None,221.56507469999997,None,j,1.7024758999996266,222.06549409999934,None,,,,,,,,,,,,,k,001,2021_Jul_06_1616,toilet,2021.1.3,99.92974938530296,
180,180,4,-4,0.94,,,,,0,0,0,0,0,1,1,36,,,,,,,,,,,,,,,,,,,,,,,224.77724519999902,None,224.77724519999902,None,224.2769172999997,None,j,0.5745843000004243,224.77724519999902,None,,,,,,,,,,,,,k,001,2021_Jul_06_1616,toilet,2021.1.3,99.92974938530296,
180,0,-4,4,1.15,,,,,0,0,0,0,0,2,2,48,,,,,,,,,,,,,,,,,,,,,,,226.35832369999844,None,226.35832369999844,None,225.8579837999987,None,j,0.6096128999997745,226.35832369999844,None,,,,,,,,,,,,,k,001,2021_Jul_06_1616,toilet,2021.1.3,99.92974938530296,
180,0,-4,4,0.97,,,,,0,0,0,0,0,3,3,44,,,,,,,,,,,,,,,,,,,,,,,227.9794243999986,None,227.9794243999986,None,227.47908669999924,None,f,2.9884732000009535,227.9794243999986,None,,,,,,,,,,,,,k,001,2021_Jul_06_1616,toilet,2021.1.3,99.92974938530296,
0,180,-4,4,0.85,,,,,0,0,0,0,0,4,4,14,,,,,,,,,,,,,,,,,,,,,,,231.97213079999892,None,231.97213079999892,None,231.47180339999977,None,f,0.5796995000000607,231.97213079999892,None,,,,,,,,,,,,,k,001,2021_Jul_06_1616,toilet,2021.1.3,99.92974938530296,
180,180,4,-4,1.06,,,,,0,0,0,0,0,5,5,40,,,,,,,,,,,,,,,,,,,,,,,233.5531949999986,None,233.5531949999986,None,233.05287359999966,None,f,0.9987870000004477,233.5531949999986,None,,,,,,,,,,,,,k,001,2021_Jul_06_1616,toilet,2021.1.3,99.92974938530296,
0,0,-4,4,1.0,,,,,0,0,0,0,0,6,6,3,,,,,,,,,,,,,,,,,,,,,,,235.5645560999983,None,235.5645560999983,None,235.06422089999978,None,j,0.459350799999811,235.5645560999983,None,,,,,,,,,,,,,k,001,2021_Jul_06_1616,toilet,2021.1.3,99.92974938530296,
0,180,-4,4,0.94,,,,,0,0,0,0,0,7,7,15,,,,,,,,,,,,,,,,,,,,,,,237.03565089999938,None,237.03565089999938,None,236.53521659999933,None,f,2.252323000000615,237.03565089999938,None,,,,,,,,,,,,,k,001,2021_Jul_06_1616,toilet,2021.1.3,99.92974938530296,
180,180,4,-4,0.97,,,,,0,0,0,0,0,8,8,37,,,,,,,,,,,,,,,,,,,,,,,240.28776169999946,None,240.28776169999946,None,239.7874245999992,None,j,0.7921518999992259,240.28776169999946,None,,,,,,,,,,,,,k,001,2021_Jul_06_1616,toilet,2021.1.3,99.92974938530296,
180,180,4,-4,1.03,,,,,0,0,0,0,0,9,9,39,,,,,,,,,,,,,,,,,,,,,,,242.08898950000003,None,242.08898950000003,None,241.58865299999889,None,f,1.1830214999990858,242.08898950000003,None,,,,,,,,,,,,,k,001,2021_Jul_06_1616,toilet,2021.1.3,99.92974938530296,
0,0,4,-4,1.03,,,,,0,0,0,0,0,10,10,11,,,,,,,,,,,,,,,,,,,,,,,244.28057289999924,None,244.28057289999924,None,243.78014019999864,None,f,1.4073127000010572,244.28057289999924,None,,,,,,,,,,,,,k,001,2021_Jul_06_1616,toilet,2021.1.3,99.92974938530296,
180,0,4,-4,1.15,,,,,0,0,0,0,0,11,11,55,,,,,,,,,,,,,,,,,,,,,,,246.7021208999995,None,246.7021208999995,None,246.20179179999832,None,f,0.5857044999993377,246.7021208999995,None,,,,,,,,,,,,,k,001,2021_Jul_06_1616,toilet,2021.1.3,99.92974938530296,
0,0,-4,4,1.15,,,,,0,0,0,0,0,12,12,6,,,,,,,,,,,,,,,,,,,,,,,248.2931968999983,None,248.2931968999983,None,247.79285399999935,None,j,0.4027734999999666,248.2931968999983,None,,,,,,,,,,,,,k,001,2021_Jul_06_1616,toilet,2021.1.3,99.92974938530296,
0,0,4,-4,0.94,,,,,0,0,0,0,0,13,13,8,,,,,,,,,,,,,,,,,,,,,,,249.70415289999983,None,249.70415289999983,None,249.20381629999974,None,j,0.3998639000001276,249.70415289999983,None,,,,,,,,,,,,,k,001,2021_Jul_06_1616,toilet,2021.1.3,99.92974938530296,
180,0,-4,4,1.0,,,,,0,0,0,0,0,14,14,45,,,,,,,,,,,,,,,,,,,,,,,251.11511399999836,None,251.11511399999836,None,250.61477119999836,None,j,0.940702699999747,251.11511399999836,None,,,,,,,,,,,,,k,001,2021_Jul_06_1616,toilet,2021.1.3,99.92974938530296,
0,180,4,-4,0.94,,,,,0,0,0,0,0,15,15,22,,,,,,,,,,,,,,,,,,,,,,,253.05650009999954,None,253.05650009999954,None,252.5561719999987,None,j,1.1594001999983448,253.05650009999954,None,,,,,,,,,,,,,k,001,2021_Jul_06_1616,toilet,2021.1.3,99.92974938530296,
180,180,-4,4,1.06,,,,,0,0,0,0,0,16,16,33,,,,,,,,,,,,,,,,,,,,,,,255.21792769999956,None,255.21792769999956,None,254.7175460999988,None,j,0.5979219999990164,255.21792769999956,None,,,,,,,,,,,,,k,001,2021_Jul_06_1616,toilet,2021.1.3,99.92974938530296,
180,0,-4,4,0.85,,,,,0,0,0,0,0,17,17,42,,,,,,,,,,,,,,,,,,,,,,,256.8189786999992,None,256.8189786999992,None,256.3186350999986,None,f,0.436949500000992,256.8189786999992,None,,,,,,,,,,,,,k,001,2021_Jul_06_1616,toilet,2021.1.3,99.92974938530296,
0,180,-4,4,0.97,,,,,0,0,0,0,0,18,18,16,,,,,,,,,,,,,,,,,,,,,,,258.25995089999924,None,258.25995089999924,None,257.7596262999996,None,j,4.499852300001294,258.25995089999924,None,,,,,,,,,,,,,k,001,2021_Jul_06_1616,toilet,2021.1.3,99.92974938530296,
0,180,4,-4,1.0,,,,,0,0,0,0,0,19,19,24,,,,,,,,,,,,,,,,,,,,,,,263.7636859999984,None,263.7636859999984,None,263.2633479999986,None,j,1.2364112999985082,263.7636859999984,None,,,,,,,,,,,,,k,001,2021_Jul_06_1616,toilet,2021.1.3,99.92974938530296,
180,180,-4,4,1.0,,,,,0,0,0,0,0,20,20,31,,,,,,,,,,,,,,,,,,,,,,,266.015211599999,None,266.015211599999,None,265.51487429999906,None,f,0.5686814000000595,266.015211599999,None,,,,,,,,,,,,,k,001,2021_Jul_06_1616,toilet,2021.1.3,99.92974938530296,
180,180,-4,4,1.15,,,,,0,0,0,0,0,21,21,34,,,,,,,,,,,,,,,,,,,,,,,267.5963635999997,None,267.5963635999997,None,267.0960254999991,None,j,0.5395115999999689,267.5963635999997,None,,,,,,,,,,,,,k,001,2021_Jul_06_1616,toilet,2021.1.3,99.92974938530296,
0,180,4,-4,1.15,,,,,0,0,0,0,0,22,22,27,,,,,,,,,,,,,,,,,,,,,,,269.1473374999987,None,269.1473374999987,None,268.6469976999997,None,f,0.5246829999996407,269.1473374999987,None,,,,,,,,,,,,,k,001,2021_Jul_06_1616,toilet,2021.1.3,99.92974938530296,
0,180,4,-4,1.03,,,,,0,0,0,0,0,23,23,25,,,,,,,,,,,,,,,,,,,,,,,270.67837749999853,None,270.67837749999853,None,270.1780358999986,None,j,2.1295066000002407,270.67837749999853,None,,,,,,,,,,,,,k,001,2021_Jul_06_1616,toilet,2021.1.3,99.92974938530296,
0,180,-4,4,1.0,,,,,0,0,0,0,0,24,24,17,,,,,,,,,,,,,,,,,,,,,,,273.8205077999992,None,273.8205077999992,None,273.32019149999905,None,j,1.5634355999991385,273.8205077999992,None,,,,,,,,,,,,,k,001,2021_Jul_06_1616,toilet,2021.1.3,99.92974938530296,
0,0,-4,4,1.03,,,,,0,0,0,0,0,25,25,4,,,,,,,,,,,,,,,,,,,,,,,276.4022535999993,None,276.4022535999993,None,275.9019148999996,None,j,0.5655305000000226,276.4022535999993,None,,,,,,,,,,,,,k,001,2021_Jul_06_1616,toilet,2021.1.3,99.92974938530296,
180,0,4,-4,1.0,,,,,0,0,0,0,0,26,26,52,,,,,,,,,,,,,,,,,,,,,,,277.9733277999985,None,277.9733277999985,None,277.4729765999982,None,j,1.234633499998381,277.9733277999985,None,,,,,,,,,,,,,k,001,2021_Jul_06_1616,toilet,2021.1.3,99.92974938530296,
0,0,-4,4,0.97,,,,,0,0,0,0,0,27,27,2,,,,,,,,,,,,,,,,,,,,,,,280.22485249999954,None,280.22485249999954,None,279.72451419999925,None,f,1.1111027000006288,280.22485249999954,None,,,,,,,,,,,,,k,001,2021_Jul_06_1616,toilet,2021.1.3,99.92974938530296,
0,0,-4,4,0.85,,,,,0,0,0,0,0,28,28,0,,,,,,,,,,,,,,,,,,,,,,,282.3363640999996,None,282.3363640999996,None,281.83602619999874,None,f,0.48744150000129594,282.3363640999996,None,,,,,,,,,,,,,k,001,2021_Jul_06_1616,toilet,2021.1.3,99.92974938530296,
0,180,-4,4,1.03,,,,,0,0,0,0,0,29,29,18,,,,,,,,,,,,,,,,,,,,,,,283.82729629999994,None,283.82729629999994,None,283.32695160000003,None,j,0.48449000000073283,283.82729629999994,None,,,,,,,,,,,,,k,001,2021_Jul_06_1616,toilet,2021.1.3,99.92974938530296,
180,180,-4,4,1.03,,,,,0,0,0,0,0,30,30,32,,,,,,,,,,,,,,,,,,,,,,,285.3183033999994,None,285.3183033999994,None,284.81796589999976,None,j,0.865596399999049,285.3183033999994,None,,,,,,,,,,,,,k,001,2021_Jul_06_1616,toilet,2021.1.3,99.92974938530296,
0,0,-4,4,1.06,,,,,0,0,0,0,0,31,31,5,,,,,,,,,,,,,,,,,,,,,,,287.1895717999996,None,287.1895717999996,None,286.68923489999906,None,j,0.5464128999992681,287.1895717999996,None,,,,,,,,,,,,,k,001,2021_Jul_06_1616,toilet,2021.1.3,99.92974938530296,
0,180,4,-4,1.06,,,,,0,0,0,0,0,32,32,26,,,,,,,,,,,,,,,,,,,,,,,288.75063279999995,None,288.75063279999995,None,288.2503704999999,None,f,0.48926120000032824,288.75063279999995,None,,,,,,,,,,,,,k,001,2021_Jul_06_1616,toilet,2021.1.3,99.92974938530296,
180,180,4,-4,0.85,,,,,0,0,0,0,0,33,33,35,,,,,,,,,,,,,,,,,,,,,,,290.25164679999943,None,290.25164679999943,None,289.7513857999984,None,j,0.46021289999953297,290.25164679999943,None,,,,,,,,,,,,,k,001,2021_Jul_06_1616,toilet,2021.1.3,99.92974938530296,
0,0,4,-4,1.06,,,,,0,0,0,0,0,34,34,12,,,,,,,,,,,,,,,,,,,,,,,291.7126432999994,None,291.7126432999994,None,291.21231219999936,None,f,0.5832848999998532,291.7126432999994,None,,,,,,,,,,,,,k,001,2021_Jul_06_1616,toilet,2021.1.3,99.92974938530296,
0,0,4,-4,0.85,,,,,0,0,0,0,0,35,35,7,,,,,,,,,,,,,,,,,,,,,,,293.3037227999994,None,293.3037227999994,None,292.8033796999989,None,j,0.4963702999993984,293.3037227999994,None,,,,,,,,,,,,,k,001,2021_Jul_06_1616,toilet,2021.1.3,99.92974938530296,
180,180,-4,4,0.85,,,,,0,0,0,0,0,36,36,28,,,,,,,,,,,,,,,,,,,,,,,294.8147410999991,None,294.8147410999991,None,294.3144078999994,None,f,0.44122779999997874,294.8147410999991,None,,,,,,,,,,,,,k,001,2021_Jul_06_1616,toilet,2021.1.3,99.92974938530296,
0,0,-4,4,0.94,,,,,0,0,0,0,0,37,37,1,,,,,,,,,,,,,,,,,,,,,,,296.26581819999956,None,296.26581819999956,None,295.7653941999997,None,f,1.1180156999998871,296.26581819999956,None,,,,,,,,,,,,,k,001,2021_Jul_06_1616,toilet,2021.1.3,99.92974938530296,
180,0,4,-4,0.94,,,,,0,0,0,0,0,38,38,50,,,,,,,,,,,,,,,,,,,,,,,298.3971714999989,None,298.3971714999989,None,297.8968335999998,None,j,0.45861390000027313,298.3971714999989,None,,,,,,,,,,,,,k,001,2021_Jul_06_1616,toilet,2021.1.3,99.92974938530296,
180,0,-4,4,0.94,,,,,0,0,0,0,0,39,39,43,,,,,,,,,,,,,,,,,,,,,,,299.8581728999998,None,299.8581728999998,None,299.35782949999884,None,f,0.5337792999998783,299.8581728999998,None,,,,,,,,,,,,,k,001,2021_Jul_06_1616,toilet,2021.1.3,99.92974938530296,
180,180,4,-4,1.15,,,,,0,0,0,0,0,40,40,41,,,,,,,,,,,,,,,,,,,,,,,301.40921679999883,None,301.40921679999883,None,300.90887479999947,None,f,0.4708792999990692,301.40921679999883,None,,,,,,,,,,,,,k,001,2021_Jul_06_1616,toilet,2021.1.3,99.92974938530296,
0,180,4,-4,0.97,,,,,0,0,0,0,0,41,41,23,,,,,,,,,,,,,,,,,,,,,,,302.8901898999993,None,302.8901898999993,None,302.38988529999915,None,j,0.9736775000001217,302.8901898999993,None,,,,,,,,,,,,,k,001,2021_Jul_06_1616,toilet,2021.1.3,99.92974938530296,
0,0,4,-4,1.0,,,,,0,0,0,0,0,42,42,10,,,,,,,,,,,,,,,,,,,,,,,304.87159319999955,None,304.87159319999955,None,304.37131559999943,None,j,0.8162084000014147,304.87159319999955,None,,,,,,,,,,,,,k,001,2021_Jul_06_1616,toilet,2021.1.3,99.92974938530296,
180,0,-4,4,1.06,,,,,0,0,0,0,0,43,43,47,,,,,,,,,,,,,,,,,,,,,,,306.6928038999995,None,306.6928038999995,None,306.19246199999907,None,j,0.6110578999996505,306.6928038999995,None,,,,,,,,,,,,,k,001,2021_Jul_06_1616,toilet,2021.1.3,99.92974938530296,
180,0,4,-4,0.85,,,,,0,0,0,0,0,44,44,49,,,,,,,,,,,,,,,,,,,,,,,308.3038887999992,None,308.3038887999992,None,307.80355299999974,None,j,0.48818410000058066,308.3038887999992,None,,,,,,,,,,,,,k,001,2021_Jul_06_1616,toilet,2021.1.3,99.92974938530296,
0,180,-4,4,1.06,,,,,0,0,0,0,0,45,45,19,,,,,,,,,,,,,,,,,,,,,,,309.80491599999914,None,309.80491599999914,None,309.30457209999986,None,j,1.242983500000264,309.80491599999914,None,,,,,,,,,,,,,k,001,2021_Jul_06_1616,toilet,2021.1.3,99.92974938530296,
0,0,4,-4,1.15,,,,,0,0,0,0,0,46,46,13,,,,,,,,,,,,,,,,,,,,,,,312.0665105999997,None,312.0665105999997,None,311.5661201999992,None,f,0.43728100000043924,312.0665105999997,None,,,,,,,,,,,,,k,001,2021_Jul_06_1616,toilet,2021.1.3,99.92974938530296,
0,0,4,-4,0.97,,,,,0,0,0,0,0,47,47,9,,,,,,,,,,,,,,,,,,,,,,,313.51741799999945,None,313.51741799999945,None,313.0170806999995,None,j,0.8263708000013139,313.51741799999945,None,,,,,,,,,,,,,k,001,2021_Jul_06_1616,toilet,2021.1.3,99.92974938530296,
0,180,-4,4,1.15,,,,,0,0,0,0,0,48,48,20,,,,,,,,,,,,,,,,,,,,,,,315.34866949999923,None,315.34866949999923,None,314.8483297999992,None,j,0.5471768999996129,315.34866949999923,None,,,,,,,,,,,,,k,001,2021_Jul_06_1616,toilet,2021.1.3,99.92974938530296,
180,0,-4,4,1.03,,,,,0,0,0,0,0,49,49,46,,,,,,,,,,,,,,,,,,,,,,,316.90972899999906,None,316.90972899999906,None,316.4093911,None,f,0.6663133000001835,316.90972899999906,None,,,,,,,,,,,,,k,001,2021_Jul_06_1616,toilet,2021.1.3,99.92974938530296,
180,180,4,-4,1.0,,,,,0,0,0,0,0,50,50,38,,,,,,,,,,,,,,,,,,,,,,,318.59086539999953,None,318.59086539999953,None,318.09061459999975,None,j,0.45703519999915443,318.59086539999953,None,,,,,,,,,,,,,k,001,2021_Jul_06_1616,toilet,2021.1.3,99.92974938530296,
180,180,-4,4,0.97,,,,,0,0,0,0,0,51,51,30,,,,,,,,,,,,,,,,,,,,,,,320.0618601999995,None,320.0618601999995,None,319.56161639999846,None,f,0.8259006000007503,320.0618601999995,None,,,,,,,,,,,,,k,001,2021_Jul_06_1616,toilet,2021.1.3,99.92974938530296,
180,0,4,-4,1.03,,,,,0,0,0,0,0,52,52,53,,,,,,,,,,,,,,,,,,,,,,,321.893120499999,None,321.893120499999,None,321.39275929999894,None,f,1.234830499999589,321.893120499999,None,,,,,,,,,,,,,k,001,2021_Jul_06_1616,toilet,2021.1.3,99.92974938530296,
0,180,4,-4,0.85,,,,,0,0,0,0,0,53,53,21,,,,,,,,,,,,,,,,,,,,,,,324.1446313999986,None,324.1446313999986,None,323.6442888999991,None,j,0.47127630000068166,324.1446313999986,None,,,,,,,,,,,,,k,001,2021_Jul_06_1616,toilet,2021.1.3,99.92974938530296,
180,180,-4,4,0.94,,,,,0,0,0,0,0,54,54,29,,,,,,,,,,,,,,,,,,,,,,,325.6157134999994,None,325.6157134999994,None,325.1152908999993,None,f,0.6002974000002723,325.6157134999994,None,,,,,,,,,,,,,k,001,2021_Jul_06_1616,toilet,2021.1.3,99.92974938530296,
180,0,4,-4,1.06,,,,,0,0,0,0,0,55,55,54,,,,,,,,,,,,,,,,,,,,,,,327.22672559999955,None,327.22672559999955,None,326.7264499999983,None,f,0.8452960000013263,327.22672559999955,None,,,,,,,,,,,,,k,001,2021_Jul_06_1616,toilet,2021.1.3,99.92974938530296,
180,180,-4,4,1.0,,,,,0,0,0,0,1,0,56,31,,,,,,,,,,,,,,,,,,,,,,,329.0779767999993,None,329.0779767999993,None,328.5776718999987,None,f,0.5939320000015869,329.0779767999993,None,,,,,,,,,,,,,k,001,2021_Jul_06_1616,toilet,2021.1.3,99.92974938530296,
180,0,4,-4,1.06,,,,,0,0,0,0,1,1,57,54,,,,,,,,,,,,,,,,,,,,,,,330.6890696999999,None,330.6890696999999,None,330.1887287999998,None,j,0.7427905000004102,330.6890696999999,None,,,,,,,,,,,,,k,001,2021_Jul_06_1616,toilet,2021.1.3,99.92974938530296,
180,180,4,-4,1.06,,,,,0,0,0,0,1,2,58,40,,,,,,,,,,,,,,,,,,,,,,,332.45025819999864,None,332.45025819999864,None,331.94992399999865,None,f,0.46968530000049213,332.45025819999864,None,,,,,,,,,,,,,k,001,2021_Jul_06_1616,toilet,2021.1.3,99.92974938530296,
0,180,4,-4,0.94,,,,,0,0,0,0,1,3,59,22,,,,,,,,,,,,,,,,,,,,,,,333.9313001999999,None,333.9313001999999,None,333.43102,None,j,2.412494800000786,333.9313001999999,None,,,,,,,,,,,,,k,001,2021_Jul_06_1616,toilet,2021.1.3,99.92974938530296,
180,0,-4,4,1.15,,,,,0,0,0,0,1,4,60,48,,,,,,,,,,,,,,,,,,,,,,,337.3435811999989,None,337.3435811999989,None,336.84324959999867,None,j,0.5202934999997524,337.3435811999989,None,,,,,,,,,,,,,k,001,2021_Jul_06_1616,toilet,2021.1.3,99.92974938530296,
0,0,-4,4,1.0,,,,,0,0,0,0,1,5,61,3,,,,,,,,,,,,,,,,,,,,,,,338.87462029999915,None,338.87462029999915,None,338.37428719999843,None,j,1.2453865000006772,338.87462029999915,None,,,,,,,,,,,,,k,001,2021_Jul_06_1616,toilet,2021.1.3,99.92974938530296,
180,180,4,-4,1.15,,,,,0,0,0,0,1,6,62,41,,,,,,,,,,,,,,,,,,,,,,,341.1362537999994,None,341.1362537999994,None,340.6358445999995,None,f,0.4876929000001837,341.1362537999994,None,,,,,,,,,,,,,k,001,2021_Jul_06_1616,toilet,2021.1.3,99.92974938530296,
180,180,-4,4,1.03,,,,,0,0,0,0,1,7,63,32,,,,,,,,,,,,,,,,,,,,,,,342.6371677999996,None,342.6371677999996,None,342.13682999999946,None,j,0.5386048000000301,342.6371677999996,None,,,,,,,,,,,,,k,001,2021_Jul_06_1616,toilet,2021.1.3,99.92974938530296,
0,180,4,-4,1.15,,,,,0,0,0,0,1,8,64,27,,,,,,,,,,,,,,,,,,,,,,,344.17821679999906,None,344.17821679999906,None,343.67787849999877,None,f,0.45367330000044603,344.17821679999906,None,,,,,,,,,,,,,k,001,2021_Jul_06_1616,toilet,2021.1.3,99.92974938530296,
180,180,4,-4,0.85,,,,,0,0,0,0,1,9,65,35,,,,,,,,,,,,,,,,,,,,,,,345.64921389999836,None,345.64921389999836,None,345.14887369999997,None,j,0.4866407000008621,345.64921389999836,None,,,,,,,,,,,,,k,001,2021_Jul_06_1616,toilet,2021.1.3,99.92974938530296,
0,0,4,-4,0.85,,,,,0,0,0,0,1,10,66,7,,,,,,,,,,,,,,,,,,,,,,,347.1502361999992,None,347.1502361999992,None,346.64990579999903,None,j,0.7776224999997794,347.1502361999992,None,,,,,,,,,,,,,k,001,2021_Jul_06_1616,toilet,2021.1.3,99.92974938530296,
0,180,4,-4,1.03,,,,,0,0,0,0,1,11,67,25,,,,,,,,,,,,,,,,,,,,,,,348.94153499999993,None,348.94153499999993,None,348.4412199999988,None,f,0.9703415000003588,348.94153499999993,None,,,,,,,,,,,,,k,001,2021_Jul_06_1616,toilet,2021.1.3,99.92974938530296,
180,0,4,-4,1.0,,,,,0,0,0,0,1,12,68,52,,,,,,,,,,,,,,,,,,,,,,,350.9127830999987,None,350.9127830999987,None,350.4124421999986,None,f,1.5272710000008374,350.9127830999987,None,,,,,,,,,,,,,k,001,2021_Jul_06_1616,toilet,2021.1.3,99.92974938530296,
180,0,4,-4,0.94,,,,,0,0,0,0,1,13,69,50,,,,,,,,,,,,,,,,,,,,,,,353.4545023999999,None,353.4545023999999,None,352.954168799999,None,j,0.553380900000775,353.4545023999999,None,,,,,,,,,,,,,k,001,2021_Jul_06_1616,toilet,2021.1.3,99.92974938530296,
180,180,-4,4,0.94,,,,,0,0,0,0,1,14,70,29,,,,,,,,,,,,,,,,,,,,,,,355.01564849999886,None,355.01564849999886,None,354.5152246999987,None,f,0.5762571999985084,355.01564849999886,None,,,,,,,,,,,,,k,001,2021_Jul_06_1616,toilet,2021.1.3,99.92974938530296,
180,180,-4,4,0.97,,,,,0,0,0,0,1,15,71,30,,,,,,,,,,,,,,,,,,,,,,,356.6066418999999,None,356.6066418999999,None,356.1063772999987,None,f,1.641244899999947,356.6066418999999,None,,,,,,,,,,,,,k,001,2021_Jul_06_1616,toilet,2021.1.3,99.92974938530296,
0,0,-4,4,0.97,,,,,0,0,0,0,1,16,72,2,,,,,,,,,,,,,,,,,,,,,,,359.2484384999989,None,359.2484384999989,None,358.7480941999984,None,f,3.111435499999061,359.2484384999989,None,,,,,,,,,,,,,k,001,2021_Jul_06_1616,toilet,2021.1.3,99.92974938530296,
180,0,-4,4,0.94,,,,,0,0,0,0,1,17,73,43,,,,,,,,,,,,,,,,,,,,,,,363.37121579999985,None,363.37121579999985,None,362.87098179999884,None,f,0.6526018000004115,363.37121579999985,None,,,,,,,,,,,,,k,001,2021_Jul_06_1616,toilet,2021.1.3,99.92974938530296,
180,180,4,-4,1.03,,,,,0,0,0,0,1,18,74,39,,,,,,,,,,,,,,,,,,,,,,,365.0323540999998,None,365.0323540999998,None,364.5320198999998,None,j,2.2076278000004095,365.0323540999998,None,,,,,,,,,,,,,k,001,2021_Jul_06_1616,toilet,2021.1.3,99.92974938530296,
180,0,4,-4,0.85,,,,,0,0,0,0,1,19,75,49,,,,,,,,,,,,,,,,,,,,,,,368.2545395999987,None,368.2545395999987,None,367.75420179999855,None,j,0.5054903000000195,368.2545395999987,None,,,,,,,,,,,,,k,001,2021_Jul_06_1616,toilet,2021.1.3,99.92974938530296,
180,180,4,-4,0.97,,,,,0,0,0,0,1,20,76,37,,,,,,,,,,,,,,,,,,,,,,,369.7755718999997,None,369.7755718999997,None,369.2753088999998,None,j,0.7282823999994434,369.7755718999997,None,,,,,,,,,,,,,k,001,2021_Jul_06_1616,toilet,2021.1.3,99.92974938530296,
0,0,-4,4,1.15,,,,,0,0,0,0,1,21,77,6,,,,,,,,,,,,,,,,,,,,,,,371.5167520999985,None,371.5167520999985,None,371.01648209999985,None,j,0.6030903999999282,371.5167520999985,None,,,,,,,,,,,,,k,001,2021_Jul_06_1616,toilet,2021.1.3,99.92974938530296,
0,0,4,-4,1.0,,,,,0,0,0,0,1,22,78,10,,,,,,,,,,,,,,,,,,,,,,,373.12784419999844,None,373.12784419999844,None,372.62750659999983,None,f,0.7359243999999308,373.12784419999844,None,,,,,,,,,,,,,k,001,2021_Jul_06_1616,toilet,2021.1.3,99.92974938530296,
180,180,-4,4,0.85,,,,,0,0,0,0,1,23,79,28,,,,,,,,,,,,,,,,,,,,,,,374.8790345999987,None,374.8790345999987,None,374.3786939999991,None,f,0.5848745000002964,374.8790345999987,None,,,,,,,,,,,,,k,001,2021_Jul_06_1616,toilet,2021.1.3,99.92974938530296,
0,0,4,-4,1.03,,,,,0,0,0,0,1,24,80,11,,,,,,,,,,,,,,,,,,,,,,,376.4801230999983,None,376.4801230999983,None,375.9797819999985,None,f,0.6797475000003033,376.4801230999983,None,,,,,,,,,,,,,k,001,2021_Jul_06_1616,toilet,2021.1.3,99.92974938530296,
180,0,4,-4,0.97,,,,,0,0,0,0,1,25,81,51,,,,,,,,,,,,,,,,,,,,,,,378.1712675999988,None,378.1712675999988,None,377.67100629999914,None,j,0.5246872999996413,378.1712675999988,None,,,,,,,,,,,,,k,001,2021_Jul_06_1616,toilet,2021.1.3,99.92974938530296,
0,0,4,-4,1.06,,,,,0,0,0,0,1,26,82,12,,,,,,,,,,,,,,,,,,,,,,,379.7123028999995,None,379.7123028999995,None,379.21196769999915,None,f,0.5034563999997772,379.7123028999995,None,,,,,,,,,,,,,k,001,2021_Jul_06_1616,toilet,2021.1.3,99.92974938530296,
180,0,-4,4,1.0,,,,,0,0,0,0,1,27,83,45,,,,,,,,,,,,,,,,,,,,,,,381.223328099999,None,381.223328099999,None,380.7229869999992,None,f,1.216748099999677,381.223328099999,None,,,,,,,,,,,,,k,001,2021_Jul_06_1616,toilet,2021.1.3,99.92974938530296,
0,0,-4,4,1.06,,,,,0,0,0,0,1,28,84,5,,,,,,,,,,,,,,,,,,,,,,,383.4548421999989,None,383.4548421999989,None,382.95449429999826,None,j,0.4731178000001819,383.4548421999989,None,,,,,,,,,,,,,k,001,2021_Jul_06_1616,toilet,2021.1.3,99.92974938530296,
180,0,-4,4,1.03,,,,,0,0,0,0,1,29,85,46,,,,,,,,,,,,,,,,,,,,,,,384.9458535999984,None,384.9458535999984,None,384.4456047999993,None,f,0.40607659999841417,384.9458535999984,None,,,,,,,,,,,,,k,001,2021_Jul_06_1616,toilet,2021.1.3,99.92974938530296,
180,180,4,-4,1.0,,,,,0,0,0,0,1,30,86,38,,,,,,,,,,,,,,,,,,,,,,,386.36681419999877,None,386.36681419999877,None,385.8665664,None,j,1.5769443000008323,386.36681419999877,None,,,,,,,,,,,,,k,001,2021_Jul_06_1616,toilet,2021.1.3,99.92974938530296,
180,0,4,-4,1.03,,,,,0,0,0,0,1,31,87,53,,,,,,,,,,,,,,,,,,,,,,,388.94857169999887,None,388.94857169999887,None,388.4482100999994,None,j,0.7232792999984667,388.94857169999887,None,,,,,,,,,,,,,k,001,2021_Jul_06_1616,toilet,2021.1.3,99.92974938530296,
0,0,4,-4,0.94,,,,,0,0,0,0,1,32,88,8,,,,,,,,,,,,,,,,,,,,,,,390.6897500999985,None,390.6897500999985,None,390.18941279999854,None,j,0.4701091000006272,390.6897500999985,None,,,,,,,,,,,,,k,001,2021_Jul_06_1616,toilet,2021.1.3,99.92974938530296,
0,180,-4,4,1.03,,,,,0,0,0,0,1,33,89,18,,,,,,,,,,,,,,,,,,,,,,,392.1707607999997,None,392.1707607999997,None,391.6704981999992,None,j,0.6531709999999293,392.1707607999997,None,,,,,,,,,,,,,k,001,2021_Jul_06_1616,toilet,2021.1.3,99.92974938530296,
0,180,4,-4,1.06,,,,,0,0,0,0,1,34,90,26,,,,,,,,,,,,,,,,,,,,,,,393.8418840999984,None,393.8418840999984,None,393.3416307999996,None,f,0.3899632000011479,393.8418840999984,None,,,,,,,,,,,,,k,001,2021_Jul_06_1616,toilet,2021.1.3,99.92974938530296,
180,180,-4,4,1.06,,,,,0,0,0,0,1,35,91,33,,,,,,,,,,,,,,,,,,,,,,,395.2328321999994,None,395.2328321999994,None,394.7324869999993,None,j,0.4550359999993816,395.2328321999994,None,,,,,,,,,,,,,k,001,2021_Jul_06_1616,toilet,2021.1.3,99.92974938530296,
0,180,-4,4,1.0,,,,,0,0,0,0,1,36,92,17,,,,,,,,,,,,,,,,,,,,,,,396.69381689999864,None,396.69381689999864,None,396.1934829999991,None,f,1.63418830000046,396.69381689999864,None,,,,,,,,,,,,,k,001,2021_Jul_06_1616,toilet,2021.1.3,99.92974938530296,
0,180,-4,4,0.97,,,,,0,0,0,0,1,37,93,16,,,,,,,,,,,,,,,,,,,,,,,399.3457108999992,None,399.3457108999992,None,398.8453701999988,None,f,0.64603409999836,399.3457108999992,None,,,,,,,,,,,,,k,001,2021_Jul_06_1616,toilet,2021.1.3,99.92974938530296,
0,0,-4,4,0.85,,,,,0,0,0,0,1,38,94,0,,,,,,,,,,,,,,,,,,,,,,,400.9967528999987,None,400.9967528999987,None,400.4964895999983,None,f,0.45110790000035195,400.9967528999987,None,,,,,,,,,,,,,k,001,2021_Jul_06_1616,toilet,2021.1.3,99.92974938530296,
0,0,4,-4,1.15,,,,,0,0,0,0,1,39,95,13,,,,,,,,,,,,,,,,,,,,,,,402.4477328999983,None,402.4477328999983,None,401.94738789999974,None,f,0.3921483000012813,402.4477328999983,None,,,,,,,,,,,,,k,001,2021_Jul_06_1616,toilet,2021.1.3,99.92974938530296,
0,180,-4,4,0.85,,,,,0,0,0,0,1,40,96,14,,,,,,,,,,,,,,,,,,,,,,,403.848679499999,None,403.848679499999,None,403.34833549999894,None,f,0.5750672000012855,403.848679499999,None,,,,,,,,,,,,,k,001,2021_Jul_06_1616,toilet,2021.1.3,99.92974938530296,
0,0,-4,4,0.94,,,,,0,0,0,0,1,41,97,1,,,,,,,,,,,,,,,,,,,,,,,405.4297497999996,None,405.4297497999996,None,404.92942049999874,None,f,0.4500707999995939,405.4297497999996,None,,,,,,,,,,,,,k,001,2021_Jul_06_1616,toilet,2021.1.3,99.92974938530296,
180,0,-4,4,0.85,,,,,0,0,0,0,1,42,98,42,,,,,,,,,,,,,,,,,,,,,,,406.8808076999994,None,406.8808076999994,None,406.39039649999904,None,f,0.4390124999990803,406.8808076999994,None,,,,,,,,,,,,,k,001,2021_Jul_06_1616,toilet,2021.1.3,99.92974938530296,
180,180,4,-4,0.94,,,,,0,0,0,0,1,43,99,36,,,,,,,,,,,,,,,,,,,,,,,408.3317105999995,None,408.3317105999995,None,407.83145909999985,None,j,0.4121021999999357,408.3317105999995,None,,,,,,,,,,,,,k,001,2021_Jul_06_1616,toilet,2021.1.3,99.92974938530296,
0,180,4,-4,0.97,,,,,0,0,0,0,1,44,100,23,,,,,,,,,,,,,,,,,,,,,,,409.752676099999,None,409.752676099999,None,409.2523394,None,j,0.44717840000157594,409.752676099999,None,,,,,,,,,,,,,k,001,2021_Jul_06_1616,toilet,2021.1.3,99.92974938530296,
180,0,-4,4,0.97,,,,,0,0,0,0,1,45,101,44,,,,,,,,,,,,,,,,,,,,,,,411.2036617999984,None,411.2036617999984,None,410.70332899999994,None,f,0.4362470999985817,411.2036617999984,None,,,,,,,,,,,,,k,001,2021_Jul_06_1616,toilet,2021.1.3,99.92974938530296,
0,180,4,-4,1.0,,,,,0,0,0,0,1,46,102,24,,,,,,,,,,,,,,,,,,,,,,,412.65464129999964,None,412.65464129999964,None,412.1543174999988,None,j,1.1133146999982273,412.65464129999964,None,,,,,,,,,,,,,k,001,2021_Jul_06_1616,toilet,2021.1.3,99.92974938530296,
0,180,4,-4,0.85,,,,,0,0,0,0,1,47,103,21,,,,,,,,,,,,,,,,,,,,,,,414.7761567999987,None,414.7761567999987,None,414.27582399999847,None,j,0.4796512000011717,414.7761567999987,None,,,,,,,,,,,,,k,001,2021_Jul_06_1616,toilet,2021.1.3,99.92974938530296,
180,0,-4,4,1.06,,,,,0,0,0,0,1,48,104,47,,,,,,,,,,,,,,,,,,,,,,,416.2570821999998,None,416.2570821999998,None,415.7567451999985,None,j,1.206668200000422,416.2570821999998,None,,,,,,,,,,,,,k,001,2021_Jul_06_1616,toilet,2021.1.3,99.92974938530296,
0,180,-4,4,0.94,,,,,0,0,0,0,1,49,105,15,,,,,,,,,,,,,,,,,,,,,,,418.46857999999884,None,418.46857999999884,None,417.96824469999956,None,f,0.7232813000009628,418.46857999999884,None,,,,,,,,,,,,,k,001,2021_Jul_06_1616,toilet,2021.1.3,99.92974938530296,
180,0,4,-4,1.15,,,,,0,0,0,0,1,50,106,55,,,,,,,,,,,,,,,,,,,,,,,420.20976729999893,None,420.20976729999893,None,419.7094270999987,None,f,0.4220973999999842,420.20976729999893,None,,,,,,,,,,,,,k,001,2021_Jul_06_1616,toilet,2021.1.3,99.92974938530296,
0,0,4,-4,0.97,,,,,0,0,0,0,1,51,107,9,,,,,,,,,,,,,,,,,,,,,,,421.6507430999991,None,421.6507430999991,None,421.1504780999985,None,j,0.4532273000004352,421.6507430999991,None,,,,,,,,,,,,,k,001,2021_Jul_06_1616,toilet,2021.1.3,99.92974938530296,
180,180,-4,4,1.15,,,,,0,0,0,0,1,52,108,34,,,,,,,,,,,,,,,,,,,,,,,423.1217371999992,None,423.1217371999992,None,422.6214903,None,j,0.4380983999999444,423.1217371999992,None,,,,,,,,,,,,,k,001,2021_Jul_06_1616,toilet,2021.1.3,99.92974938530296,
0,180,-4,4,1.15,,,,,0,0,0,0,1,53,109,20,,,,,,,,,,,,,,,,,,,,,,,424.5627098999994,None,424.5627098999994,None,424.06237469999905,None,j,0.48503039999923203,424.5627098999994,None,,,,,,,,,,,,,k,001,2021_Jul_06_1616,toilet,2021.1.3,99.92974938530296,
0,0,-4,4,1.03,,,,,0,0,0,0,1,54,110,4,,,,,,,,,,,,,,,,,,,,,,,426.0537302999983,None,426.0537302999983,None,425.5533886999983,None,j,1.0582011000005878,426.0537302999983,None,,,,,,,,,,,,,k,001,2021_Jul_06_1616,toilet,2021.1.3,99.92974938530296,
0,180,-4,4,1.06,,,,,0,0,0,0,1,55,111,19,,,,,,,,,,,,,,,,,,,,,,,428.12520869999935,None,428.12520869999935,None,427.62479769999845,None,j,0.8426307999998244,428.12520869999935,None,,,,,,,,,,,,,k,001,2021_Jul_06_1616,toilet,2021.1.3,99.92974938530296,
,,,,,,,,,0,0,0,0,,,,,,,,,,,,,,,,,,,,,,,,,,,,,,,,,,,,,428.9857327999998,None,space,3.5340106999992713,428.9857327999998,None,,,,,,,k,001,2021_Jul_06_1616,toilet,2021.1.3,99.92974938530296,
180,0,4,-4,1.06,,,,,1,0,1,0,0,0,0,54,,,,,,,,,,,,,,,,,432.5381258999987,None,space,2.6217187000002014,432.5381258999987,None,436.1806757999984,None,436.1806757999984,None,435.6802725999987,None,f,0.5152120000002469,436.1806757999984,None,,,,,,,,,,,,,k,001,2021_Jul_06_1616,toilet,2021.1.3,99.92974938530296,
0,0,-4,4,1.15,,,,,1,0,1,0,0,1,1,6,,,,,,,,,,,,,,,,,,,,,,,437.7116638999996,None,437.7116638999996,None,437.21126619999995,None,j,0.42407730000013544,437.7116638999996,None,,,,,,,,,,,,,k,001,2021_Jul_06_1616,toilet,2021.1.3,99.92974938530296,
180,0,-4,4,0.94,,,,,1,0,1,0,0,2,2,43,,,,,,,,,,,,,,,,,,,,,,,439.1426038999998,None,439.1426038999998,None,438.6422630999987,None,f,0.4652507000009791,439.1426038999998,None,,,,,,,,,,,,,k,001,2021_Jul_06_1616,toilet,2021.1.3,99.92974938530296,
180,0,-4,4,0.97,,,,,1,0,1,0,0,3,3,44,,,,,,,,,,,,,,,,,,,,,,,440.6136056999985,None,440.6136056999985,None,440.11326609999924,None,f,1.0742500999986078,440.6136056999985,None,,,,,,,,,,,,,k,001,2021_Jul_06_1616,toilet,2021.1.3,99.92974938530296,
180,180,4,-4,1.15,,,,,1,0,1,0,0,4,4,41,,,,,,,,,,,,,,,,,,,,,,,442.6950160999986,None,442.6950160999986,None,442.1946732999986,None,f,0.4487898999996105,442.6950160999986,None,,,,,,,,,,,,,k,001,2021_Jul_06_1616,toilet,2021.1.3,99.92974938530296,
180,0,4,-4,0.97,,,,,1,0,1,0,0,5,5,51,,,,,,,,,,,,,,,,,,,,,,,444.146069299999,None,444.146069299999,None,443.6457369999989,None,j,1.3976454000003287,444.146069299999,None,,,,,,,,,,,,,k,001,2021_Jul_06_1616,toilet,2021.1.3,99.92974938530296,
0,180,-4,4,1.0,,,,,1,0,1,0,0,6,6,17,,,,,,,,,,,,,,,,,,,,,,,446.547634999999,None,446.547634999999,None,446.04728819999946,None,j,1.2200842000002012,446.547634999999,None,,,,,,,,,,,,,k,001,2021_Jul_06_1616,toilet,2021.1.3,99.92974938530296,
0,0,-4,4,1.03,,,,,1,0,1,0,0,7,7,4,,,,,,,,,,,,,,,,,,,,,,,448.7691419999992,None,448.7691419999992,None,448.26881779999894,None,j,0.7427437999995163,448.7691419999992,None,,,,,,,,,,,,,k,001,2021_Jul_06_1616,toilet,2021.1.3,99.92974938530296,
180,0,4,-4,1.15,,,,,1,0,1,0,0,8,8,55,,,,,,,,,,,,,,,,,,,,,,,450.5304013999994,None,450.5304013999994,None,450.0299856999991,None,f,0.4375201000002562,450.5304013999994,None,,,,,,,,,,,,,k,001,2021_Jul_06_1616,toilet,2021.1.3,99.92974938530296,
0,180,4,-4,1.06,,,,,1,0,1,0,0,9,9,26,,,,,,,,,,,,,,,,,,,,,,,451.98134519999985,None,451.98134519999985,None,451.4810426999993,None,f,0.4746573999982502,451.98134519999985,None,,,,,,,,,,,,,k,001,2021_Jul_06_1616,toilet,2021.1.3,99.92974938530296,
0,180,-4,4,1.06,,,,,1,0,1,0,0,10,10,19,,,,,,,,,,,,,,,,,,,,,,,453.47232299999996,None,453.47232299999996,None,452.97197849999975,None,j,0.4394259000000602,453.47232299999996,None,,,,,,,,,,,,,k,001,2021_Jul_06_1616,toilet,2021.1.3,99.92974938530296,
0,180,4,-4,1.15,,,,,1,0,1,0,0,11,11,27,,,,,,,,,,,,,,,,,,,,,,,454.913301999999,None,454.913301999999,None,454.4129607999985,None,f,0.4064283000006981,454.913301999999,None,,,,,,,,,,,,,k,001,2021_Jul_06_1616,toilet,2021.1.3,99.92974938530296,
180,180,4,-4,0.94,,,,,1,0,1,0,0,12,12,36,,,,,,,,,,,,,,,,,,,,,,,456.3242462999988,None,456.3242462999988,None,455.82391519999874,None,j,0.4516662999994878,456.3242462999988,None,,,,,,,,,,,,,k,001,2021_Jul_06_1616,toilet,2021.1.3,99.92974938530296,
0,180,4,-4,0.94,,,,,1,0,1,0,0,13,13,22,,,,,,,,,,,,,,,,,,,,,,,457.7853166999994,None,457.7853166999994,None,457.28490769999917,None,j,0.5905316999997012,457.7853166999994,None,,,,,,,,,,,,,k,001,2021_Jul_06_1616,toilet,2021.1.3,99.92974938530296,
180,0,-4,4,1.03,,,,,1,0,1,0,0,14,14,46,,,,,,,,,,,,,,,,,,,,,,,459.3863281999984,None,459.3863281999984,None,458.8860876999988,None,j,0.9734979000004387,459.3863281999984,None,,,,,,,,,,,,,k,001,2021_Jul_06_1616,toilet,2021.1.3,99.92974938530296,
0,0,4,-4,1.15,,,,,1,0,1,0,0,15,15,13,,,,,,,,,,,,,,,,,,,,,,,461.36767189999955,None,461.36767189999955,None,460.867338,None,f,0.36804490000031365,461.36767189999955,None,,,,,,,,,,,,,k,001,2021_Jul_06_1616,toilet,2021.1.3,99.92974938530296,
180,0,4,-4,0.94,,,,,1,0,1,0,0,16,16,50,,,,,,,,,,,,,,,,,,,,,,,462.7386297999983,None,462.7386297999983,None,462.23826799999915,None,j,0.501166000000012,462.7386297999983,None,,,,,,,,,,,,,k,001,2021_Jul_06_1616,toilet,2021.1.3,99.92974938530296,
0,0,-4,4,0.85,,,,,1,0,1,0,0,17,17,0,,,,,,,,,,,,,,,,,,,,,,,464.2496276999991,None,464.2496276999991,None,463.7492934999991,None,f,0.36637510000036855,464.2496276999991,None,,,,,,,,,,,,,k,001,2021_Jul_06_1616,toilet,2021.1.3,99.92974938530296,
180,0,4,-4,0.85,,,,,1,0,1,0,0,18,18,49,,,,,,,,,,,,,,,,,,,,,,,465.63064399999894,None,465.63064399999894,None,465.13022779999847,None,j,0.4571503000006487,465.63064399999894,None,,,,,,,,,,,,,k,001,2021_Jul_06_1616,toilet,2021.1.3,99.92974938530296,
180,180,-4,4,1.03,,,,,1,0,1,0,0,19,19,32,,,,,,,,,,,,,,,,,,,,,,,467.1015927999997,None,467.1015927999997,None,466.60122319999937,None,j,1.1942884999989474,467.1015927999997,None,,,,,,,,,,,,,k,001,2021_Jul_06_1616,toilet,2021.1.3,99.92974938530296,
180,0,-4,4,0.85,,,,,1,0,1,0,0,20,20,42,,,,,,,,,,,,,,,,,,,,,,,469.3030670999997,None,469.3030670999997,None,468.80271289999837,None,f,0.3847412999984954,469.3030670999997,None,,,,,,,,,,,,,k,001,2021_Jul_06_1616,toilet,2021.1.3,99.92974938530296,
180,180,-4,4,1.15,,,,,1,0,1,0,0,21,21,34,,,,,,,,,,,,,,,,,,,,,,,470.6940004999997,None,470.6940004999997,None,470.1936578999994,None,j,0.41792030000033265,470.6940004999997,None,,,,,,,,,,,,,k,001,2021_Jul_06_1616,toilet,2021.1.3,99.92974938530296,
0,0,4,-4,0.85,,,,,1,0,1,0,0,22,22,7,,,,,,,,,,,,,,,,,,,,,,,472.1250642999985,None,472.1250642999985,None,471.62462719999894,None,j,0.4586894999993092,472.1250642999985,None,,,,,,,,,,,,,k,001,2021_Jul_06_1616,toilet,2021.1.3,99.92974938530296,
0,0,4,-4,0.97,,,,,1,0,1,0,0,23,23,9,,,,,,,,,,,,,,,,,,,,,,,473.58605869999883,None,473.58605869999883,None,473.0856939999994,None,j,1.1577250000009371,473.58605869999883,None,,,,,,,,,,,,,k,001,2021_Jul_06_1616,toilet,2021.1.3,99.92974938530296,
0,0,-4,4,0.94,,,,,1,0,1,0,0,24,24,1,,,,,,,,,,,,,,,,,,,,,,,475.74742459999834,None,475.74742459999834,None,475.24708569999893,None,f,0.9803281000004063,475.74742459999834,None,,,,,,,,,,,,,k,001,2021_Jul_06_1616,toilet,2021.1.3,99.92974938530296,
0,180,4,-4,1.03,,,,,1,0,1,0,0,25,25,25,,,,,,,,,,,,,,,,,,,,,,,477.7287635999983,None,477.7287635999983,None,477.2284295999998,None,f,0.5351227999999537,477.7287635999983,None,,,,,,,,,,,,,k,001,2021_Jul_06_1616,toilet,2021.1.3,99.92974938530296,
180,180,4,-4,1.0,,,,,1,0,1,0,0,26,26,38,,,,,,,,,,,,,,,,,,,,,,,479.2798168999998,None,479.2798168999998,None,478.7794787999992,None,f,0.6799696999987646,479.2798168999998,None,,,,,,,,,,,,,k,001,2021_Jul_06_1616,toilet,2021.1.3,99.92974938530296,
180,180,-4,4,1.06,,,,,1,0,1,0,0,27,27,33,,,,,,,,,,,,,,,,,,,,,,,480.97103999999854,None,480.97103999999854,None,480.4707271999996,None,j,0.5406574000007822,480.97103999999854,None,,,,,,,,,,,,,k,001,2021_Jul_06_1616,toilet,2021.1.3,99.92974938530296,
180,0,-4,4,1.0,,,,,1,0,1,0,0,28,28,45,,,,,,,,,,,,,,,,,,,,,,,482.51200919999974,None,482.51200919999974,None,482.01168289999987,None,f,0.6477211000001262,482.51200919999974,None,,,,,,,,,,,,,k,001,2021_Jul_06_1616,toilet,2021.1.3,99.92974938530296,
0,0,4,-4,1.03,,,,,1,0,1,0,0,29,29,11,,,,,,,,,,,,,,,,,,,,,,,484.16313159999845,None,484.16313159999845,None,483.66279029999896,None,f,1.044625399999859,484.16313159999845,None,,,,,,,,,,,,,k,001,2021_Jul_06_1616,toilet,2021.1.3,99.92974938530296,
0,180,4,-4,0.97,,,,,1,0,1,0,0,30,30,23,,,,,,,,,,,,,,,,,,,,,,,486.2245250999986,None,486.2245250999986,None,485.72418319999997,None,j,1.1911964999999327,486.2245250999986,None,,,,,,,,,,,,,k,001,2021_Jul_06_1616,toilet,2021.1.3,99.92974938530296,
180,0,-4,4,1.15,,,,,1,0,1,0,0,31,31,48,,,,,,,,,,,,,,,,,,,,,,,488.41608389999965,None,488.41608389999965,None,487.91571009999825,None,j,0.5996844000001147,488.41608389999965,None,,,,,,,,,,,,,k,001,2021_Jul_06_1616,toilet,2021.1.3,99.92974938530296,
0,180,-4,4,0.85,,,,,1,0,1,0,0,32,32,14,,,,,,,,,,,,,,,,,,,,,,,490.0271307999992,None,490.0271307999992,None,489.5267625999986,None,f,1.1487230000002455,490.0271307999992,None,,,,,,,,,,,,,k,001,2021_Jul_06_1616,toilet,2021.1.3,99.92974938530296,
0,180,4,-4,0.85,,,,,1,0,1,0,0,33,33,21,,,,,,,,,,,,,,,,,,,,,,,492.1785661999984,None,492.1785661999984,None,491.6782244999995,None,j,0.4691481999998359,492.1785661999984,None,,,,,,,,,,,,,k,001,2021_Jul_06_1616,toilet,2021.1.3,99.92974938530296,
0,180,-4,4,1.15,,,,,1,0,1,0,0,34,34,20,,,,,,,,,,,,,,,,,,,,,,,493.659564399999,None,493.659564399999,None,493.1592279999986,None,j,0.44426240000029793,493.659564399999,None,,,,,,,,,,,,,k,001,2021_Jul_06_1616,toilet,2021.1.3,99.92974938530296,
0,180,4,-4,1.0,,,,,1,0,1,0,0,35,35,24,,,,,,,,,,,,,,,,,,,,,,,495.1106317999984,None,495.1106317999984,None,494.61021119999896,None,f,1.4253535000007105,495.1106317999984,None,,,,,,,,,,,,,k,001,2021_Jul_06_1616,toilet,2021.1.3,99.92974938530296,
0,180,-4,4,1.03,,,,,1,0,1,0,0,36,36,18,,,,,,,,,,,,,,,,,,,,,,,497.5522102999985,None,497.5522102999985,None,497.05187079999996,None,j,1.6396533999995881,497.5522102999985,None,,,,,,,,,,,,,k,001,2021_Jul_06_1616,toilet,2021.1.3,99.92974938530296,
180,180,-4,4,1.0,,,,,1,0,1,0,0,37,37,31,,,,,,,,,,,,,,,,,,,,,,,500.2040051999993,None,500.2040051999993,None,499.7036679999983,None,j,1.6280151999999362,500.2040051999993,None,,,,,,,,,,,,,k,001,2021_Jul_06_1616,toilet,2021.1.3,99.92974938530296,
180,180,4,-4,0.97,,,,,1,0,1,0,0,38,38,37,,,,,,,,,,,,,,,,,,,,,,,502.8458815999984,None,502.8458815999984,None,502.345460999999,None,j,0.9219428999986121,502.8458815999984,None,,,,,,,,,,,,,k,001,2021_Jul_06_1616,toilet,2021.1.3,99.92974938530296,
0,0,4,-4,1.06,,,,,1,0,1,0,0,39,39,12,,,,,,,,,,,,,,,,,,,,,,,504.7771011999994,None,504.7771011999994,None,504.27677179999955,None,f,0.6708340000004682,504.7771011999994,None,,,,,,,,,,,,,k,001,2021_Jul_06_1616,toilet,2021.1.3,99.92974938530296,
180,0,-4,4,1.06,,,,,1,0,1,0,0,40,40,47,,,,,,,,,,,,,,,,,,,,,,,506.44826869999997,None,506.44826869999997,None,505.94789579999997,None,j,3.351461100000961,506.44826869999997,None,,,,,,,,,,,,,k,001,2021_Jul_06_1616,toilet,2021.1.3,99.92974938530296,
180,0,4,-4,1.0,,,,,1,0,1,0,0,41,41,52,,,,,,,,,,,,,,,,,,,,,,,510.80127489999904,None,510.80127489999904,None,510.3009415999986,None,f,1.4945545999999013,510.80127489999904,None,,,,,,,,,,,,,k,001,2021_Jul_06_1616,toilet,2021.1.3,99.92974938530296,
180,180,-4,4,0.85,,,,,1,0,1,0,0,42,42,28,,,,,,,,,,,,,,,,,,,,,,,513.3028839999988,None,513.3028839999988,None,512.802541699999,None,f,0.4808990999990783,513.3028839999988,None,,,,,,,,,,,,,k,001,2021_Jul_06_1616,toilet,2021.1.3,99.92974938530296,
180,180,-4,4,0.97,,,,,1,0,1,0,0,43,43,30,,,,,,,,,,,,,,,,,,,,,,,514.7938943999998,None,514.7938943999998,None,514.2935566999986,None,f,0.4618675000001531,514.7938943999998,None,,,,,,,,,,,,,k,001,2021_Jul_06_1616,toilet,2021.1.3,99.92974938530296,
180,180,4,-4,1.03,,,,,1,0,1,0,0,44,44,39,,,,,,,,,,,,,,,,,,,,,,,516.2648930999985,None,516.2648930999985,None,515.7645565999992,None,f,0.4950891999997111,516.2648930999985,None,,,,,,,,,,,,,k,001,2021_Jul_06_1616,toilet,2021.1.3,99.92974938530296,
180,180,4,-4,1.06,,,,,1,0,1,0,0,45,45,40,,,,,,,,,,,,,,,,,,,,,,,517.7759905999992,None,517.7759905999992,None,517.275663299999,None,f,0.6639273000000685,517.7759905999992,None,,,,,,,,,,,,,k,001,2021_Jul_06_1616,toilet,2021.1.3,99.92974938530296,
0,0,-4,4,0.97,,,,,1,0,1,0,0,46,46,2,,,,,,,,,,,,,,,,,,,,,,,519.4570558999985,None,519.4570558999985,None,518.956714599999,None,f,0.7266913000003115,519.4570558999985,None,,,,,,,,,,,,,k,001,2021_Jul_06_1616,toilet,2021.1.3,99.92974938530296,
0,180,-4,4,0.97,,,,,1,0,1,0,0,47,47,16,,,,,,,,,,,,,,,,,,,,,,,521.1882321999983,None,521.1882321999983,None,520.6878926999998,None,j,1.2514864999993733,521.1882321999983,None,,,,,,,,,,,,,k,001,2021_Jul_06_1616,toilet,2021.1.3,99.92974938530296,
0,0,4,-4,1.0,,,,,1,0,1,0,0,48,48,10,,,,,,,,,,,,,,,,,,,,,,,523.4497640999998,None,523.4497640999998,None,522.9494319999994,None,f,1.2621005000000878,523.4497640999998,None,,,,,,,,,,,,,k,001,2021_Jul_06_1616,toilet,2021.1.3,99.92974938530296,
0,0,4,-4,0.94,,,,,1,0,1,0,0,49,49,8,,,,,,,,,,,,,,,,,,,,,,,525.7213024999983,None,525.7213024999983,None,525.2210517999993,None,j,0.4944961000001058,525.7213024999983,None,,,,,,,,,,,,,k,001,2021_Jul_06_1616,toilet,2021.1.3,99.92974938530296,
180,180,4,-4,0.85,,,,,1,0,1,0,0,50,50,35,,,,,,,,,,,,,,,,,,,,,,,527.2223188999997,None,527.2223188999997,None,526.7219807999991,None,j,0.4335238000003301,527.2223188999997,None,,,,,,,,,,,,,k,001,2021_Jul_06_1616,toilet,2021.1.3,99.92974938530296,
180,0,4,-4,1.03,,,,,1,0,1,0,0,51,51,53,,,,,,,,,,,,,,,,,,,,,,,528.6633060999993,None,528.6633060999993,None,528.1629585999999,None,f,0.9766803000002255,528.6633060999993,None,,,,,,,,,,,,,k,001,2021_Jul_06_1616,toilet,2021.1.3,99.92974938530296,
0,0,-4,4,1.06,,,,,1,0,1,0,0,52,52,5,,,,,,,,,,,,,,,,,,,,,,,530.6546514999991,None,530.6546514999991,None,530.1543122999992,None,j,0.5211461999988387,530.6546514999991,None,,,,,,,,,,,,,k,001,2021_Jul_06_1616,toilet,2021.1.3,99.92974938530296,
0,0,-4,4,1.0,,,,,1,0,1,0,0,53,53,3,,,,,,,,,,,,,,,,,,,,,,,532.1857674999992,None,532.1857674999992,None,531.6853459999984,None,f,1.1340245999999752,532.1857674999992,None,,,,,,,,,,,,,k,001,2021_Jul_06_1616,toilet,2021.1.3,99.92974938530296,
180,180,-4,4,0.94,,,,,1,0,1,0,0,54,54,29,,,,,,,,,,,,,,,,,,,,,,,534.3371469999984,None,534.3371469999984,None,533.8368059999993,None,f,0.6145517000004475,534.3371469999984,None,,,,,,,,,,,,,k,001,2021_Jul_06_1616,toilet,2021.1.3,99.92974938530296,
0,180,-4,4,0.94,,,,,1,0,1,0,0,55,55,15,,,,,,,,,,,,,,,,,,,,,,,535.9582420999996,None,535.9582420999996,None,535.4579018999993,None,f,0.6578167999996367,535.9582420999996,None,,,,,,,,,,,,,k,001,2021_Jul_06_1616,toilet,2021.1.3,99.92974938530296,
180,180,-4,4,1.03,,,,,1,0,1,0,1,0,56,32,,,,,,,,,,,,,,,,,,,,,,,537.6293777999999,None,537.6293777999999,None,537.1290337999999,None,j,0.6184922000011284,537.6293777999999,None,,,,,,,,,,,,,k,001,2021_Jul_06_1616,toilet,2021.1.3,99.92974938530296,
180,0,-4,4,1.0,,,,,1,0,1,0,1,1,57,45,,,,,,,,,,,,,,,,,,,,,,,539.2605679999997,None,539.2605679999997,None,538.7601450999991,None,j,1.5314149000005273,539.2605679999997,None,,,,,,,,,,,,,k,001,2021_Jul_06_1616,toilet,2021.1.3,99.92974938530296,
180,0,4,-4,1.03,,,,,1,0,1,0,1,2,58,53,,,,,,,,,,,,,,,,,,,,,,,541.8021970999998,None,541.8021970999998,None,541.3018587999995,None,j,1.2136644999991404,541.8021970999998,None,,,,,,,,,,,,,k,001,2021_Jul_06_1616,toilet,2021.1.3,99.92974938530296,
0,180,4,-4,1.03,,,,,1,0,1,0,1,3,59,25,,,,,,,,,,,,,,,,,,,,,,,544.0237078999999,None,544.0237078999999,None,543.5233689999986,None,f,0.5120561000003363,544.0237078999999,None,,,,,,,,,,,,,k,001,2021_Jul_06_1616,toilet,2021.1.3,99.92974938530296,
0,180,-4,4,1.06,,,,,1,0,1,0,1,4,60,19,,,,,,,,,,,,,,,,,,,,,,,545.554752099999,None,545.554752099999,None,545.0544109999992,None,j,0.46908869999970193,545.554752099999,None,,,,,,,,,,,,,k,001,2021_Jul_06_1616,toilet,2021.1.3,99.92974938530296,
180,180,4,-4,0.97,,,,,1,0,1,0,1,5,61,37,,,,,,,,,,,,,,,,,,,,,,,547.0357522999984,None,547.0357522999984,None,546.5355088999986,None,j,0.6520557000003464,547.0357522999984,None,,,,,,,,,,,,,k,001,2021_Jul_06_1616,toilet,2021.1.3,99.92974938530296,
0,0,4,-4,0.94,,,,,1,0,1,0,1,6,62,8,,,,,,,,,,,,,,,,,,,,,,,548.6968804999997,None,548.6968804999997,None,548.1965671999988,None,j,1.0229153999989649,548.6968804999997,None,,,,,,,,,,,,,k,001,2021_Jul_06_1616,toilet,2021.1.3,99.92974938530296,
180,180,4,-4,1.15,,,,,1,0,1,0,1,7,63,41,,,,,,,,,,,,,,,,,,,,,,,550.7282417999995,None,550.7282417999995,None,550.2279081999986,None,f,0.4636804999991,550.7282417999995,None,,,,,,,,,,,,,k,001,2021_Jul_06_1616,toilet,2021.1.3,99.92974938530296,
0,180,-4,4,1.0,,,,,1,0,1,0,1,8,64,17,,,,,,,,,,,,,,,,,,,,,,,552.2092596999992,None,552.2092596999992,None,551.7089196999987,None,j,2.678691200000685,552.2092596999992,None,,,,,,,,,,,,,k,001,2021_Jul_06_1616,toilet,2021.1.3,99.92974938530296,
0,180,-4,4,1.15,,,,,1,0,1,0,1,9,65,20,,,,,,,,,,,,,,,,,,,,,,,555.9017589999985,None,555.9017589999985,None,555.4014621999995,None,j,0.5059312000012142,555.9017589999985,None,,,,,,,,,,,,,k,001,2021_Jul_06_1616,toilet,2021.1.3,99.92974938530296,
180,180,4,-4,1.06,,,,,1,0,1,0,1,10,66,40,,,,,,,,,,,,,,,,,,,,,,,557.4127839999983,None,557.4127839999983,None,556.9124457999987,None,f,0.48302220000005036,557.4127839999983,None,,,,,,,,,,,,,k,001,2021_Jul_06_1616,toilet,2021.1.3,99.92974938530296,
0,180,-4,4,1.03,,,,,1,0,1,0,1,11,67,18,,,,,,,,,,,,,,,,,,,,,,,558.9037877999999,None,558.9037877999999,None,558.4034548999989,None,j,1.0241651999986061,558.9037877999999,None,,,,,,,,,,,,,k,001,2021_Jul_06_1616,toilet,2021.1.3,99.92974938530296,
0,0,4,-4,0.85,,,,,1,0,1,0,1,12,68,7,,,,,,,,,,,,,,,,,,,,,,,560.9551849999989,None,560.9551849999989,None,560.4548498999993,None,j,0.508603199999925,560.9551849999989,None,,,,,,,,,,,,,k,001,2021_Jul_06_1616,toilet,2021.1.3,99.92974938530296,
0,0,-4,4,1.0,,,,,1,0,1,0,1,13,69,3,,,,,,,,,,,,,,,,,,,,,,,562.4763168999998,None,562.4763168999998,None,561.975873899999,None,f,0.42742140000154905,562.4763168999998,None,,,,,,,,,,,,,k,001,2021_Jul_06_1616,toilet,2021.1.3,99.92974938530296,
0,0,4,-4,1.15,,,,,1,0,1,0,1,14,70,13,,,,,,,,,,,,,,,,,,,,,,,563.9171890999987,None,563.9171890999987,None,563.4168485999999,None,f,0.4426320999991731,563.9171890999987,None,,,,,,,,,,,,,k,001,2021_Jul_06_1616,toilet,2021.1.3,99.92974938530296,
180,180,-4,4,0.94,,,,,1,0,1,0,1,15,71,29,,,,,,,,,,,,,,,,,,,,,,,565.3681798999987,None,565.3681798999987,None,564.8678378999994,None,f,0.44757639999988896,565.3681798999987,None,,,,,,,,,,,,,k,001,2021_Jul_06_1616,toilet,2021.1.3,99.92974938530296,
0,180,4,-4,0.85,,,,,1,0,1,0,1,16,72,21,,,,,,,,,,,,,,,,,,,,,,,566.8191676999995,None,566.8191676999995,None,566.3188234999998,None,j,0.5006439999997383,566.8191676999995,None,,,,,,,,,,,,,k,001,2021_Jul_06_1616,toilet,2021.1.3,99.92974938530296,
180,180,4,-4,1.03,,,,,1,0,1,0,1,17,73,39,,,,,,,,,,,,,,,,,,,,,,,568.3302805999992,None,568.3302805999992,None,567.8298530999982,None,f,0.46148379999976896,568.3302805999992,None,,,,,,,,,,,,,k,001,2021_Jul_06_1616,toilet,2021.1.3,99.92974938530296,
180,0,-4,4,1.15,,,,,1,0,1,0,1,18,74,48,,,,,,,,,,,,,,,,,,,,,,,569.8012829999989,None,569.8012829999989,None,569.3009226999984,None,j,0.38256449999971665,569.8012829999989,None,,,,,,,,,,,,,k,001,2021_Jul_06_1616,toilet,2021.1.3,99.92974938530296,
180,180,4,-4,0.85,,,,,1,0,1,0,1,19,75,35,,,,,,,,,,,,,,,,,,,,,,,571.2021338999984,None,571.2021338999984,None,570.7018003999983,None,j,0.5016546999995626,571.2021338999984,None,,,,,,,,,,,,,k,001,2021_Jul_06_1616,toilet,2021.1.3,99.92974938530296,
0,180,4,-4,0.94,,,,,1,0,1,0,1,20,76,22,,,,,,,,,,,,,,,,,,,,,,,572.7031555999984,None,572.7031555999984,None,572.2028180999987,None,j,1.3685407999983,572.7031555999984,None,,,,,,,,,,,,,k,001,2021_Jul_06_1616,toilet,2021.1.3,99.92974938530296,
0,0,-4,4,0.94,,,,,1,0,1,0,1,21,77,1,,,,,,,,,,,,,,,,,,,,,,,575.0747631999984,None,575.0747631999984,None,574.5745427999991,None,f,0.4049819000010757,575.0747631999984,None,,,,,,,,,,,,,k,001,2021_Jul_06_1616,toilet,2021.1.3,99.92974938530296,
0,0,-4,4,1.06,,,,,1,0,1,0,1,22,78,5,,,,,,,,,,,,,,,,,,,,,,,576.4858072999996,None,576.4858072999996,None,575.9853776,None,j,0.6899769000010565,576.4858072999996,None,,,,,,,,,,,,,k,001,2021_Jul_06_1616,toilet,2021.1.3,99.92974938530296,
0,0,-4,4,1.03,,,,,1,0,1,0,1,23,79,4,,,,,,,,,,,,,,,,,,,,,,,578.1868568999998,None,578.1868568999998,None,577.6866223999987,None,j,1.1009030000004714,578.1868568999998,None,,,,,,,,,,,,,k,001,2021_Jul_06_1616,toilet,2021.1.3,99.92974938530296,
0,0,4,-4,1.03,,,,,1,0,1,0,1,24,80,11,,,,,,,,,,,,,,,,,,,,,,,580.2882949999985,None,580.2882949999985,None,579.7879564999985,None,f,0.5034739000002446,580.2882949999985,None,,,,,,,,,,,,,k,001,2021_Jul_06_1616,toilet,2021.1.3,99.92974938530296,
0,180,-4,4,0.94,,,,,1,0,1,0,1,25,81,15,,,,,,,,,,,,,,,,,,,,,,,581.7993259999985,None,581.7993259999985,None,581.2989789999992,None,f,0.43244439999944007,581.7993259999985,None,,,,,,,,,,,,,k,001,2021_Jul_06_1616,toilet,2021.1.3,99.92974938530296,
0,180,4,-4,1.0,,,,,1,0,1,0,1,26,82,24,,,,,,,,,,,,,,,,,,,,,,,583.2503031999986,None,583.2503031999986,None,582.7500517999997,None,f,0.629443200001333,583.2503031999986,None,,,,,,,,,,,,,k,001,2021_Jul_06_1616,toilet,2021.1.3,99.92974938530296,
180,0,4,-4,0.97,,,,,1,0,1,0,1,27,83,51,,,,,,,,,,,,,,,,,,,,,,,584.891446399999,None,584.891446399999,None,584.3911347999983,None,j,1.2282374999995227,584.891446399999,None,,,,,,,,,,,,,k,001,2021_Jul_06_1616,toilet,2021.1.3,99.92974938530296,
0,180,4,-4,1.15,,,,,1,0,1,0,1,28,84,27,,,,,,,,,,,,,,,,,,,,,,,587.1229276999984,None,587.1229276999984,None,586.6225968999988,None,f,0.4849971000003279,587.1229276999984,None,,,,,,,,,,,,,k,001,2021_Jul_06_1616,toilet,2021.1.3,99.92974938530296,
0,0,-4,4,0.85,,,,,1,0,1,0,1,29,85,0,,,,,,,,,,,,,,,,,,,,,,,588.6239419999984,None,588.6239419999984,None,588.1236080999988,None,f,0.3759607000010874,588.6239419999984,None,,,,,,,,,,,,,k,001,2021_Jul_06_1616,toilet,2021.1.3,99.92974938530296,
180,180,-4,4,0.85,,,,,1,0,1,0,1,30,86,28,,,,,,,,,,,,,,,,,,,,,,,590.0148896999999,None,590.0148896999999,None,589.514568999999,None,f,0.4571424999994633,590.0148896999999,None,,,,,,,,,,,,,k,001,2021_Jul_06_1616,toilet,2021.1.3,99.92974938530296,
0,180,4,-4,1.06,,,,,1,0,1,0,1,31,87,26,,,,,,,,,,,,,,,,,,,,,,,591.4859817999986,None,591.4859817999986,None,590.9856182999993,None,f,1.6897179000006872,591.4859817999986,None,,,,,,,,,,,,,k,001,2021_Jul_06_1616,toilet,2021.1.3,99.92974938530296,
0,0,4,-4,1.06,,,,,1,0,1,0,1,32,88,12,,,,,,,,,,,,,,,,,,,,,,,594.1777096999995,None,594.1777096999995,None,593.6773642999997,None,f,0.6460868000012852,594.1777096999995,None,,,,,,,,,,,,,k,001,2021_Jul_06_1616,toilet,2021.1.3,99.92974938530296,
180,180,-4,4,0.97,,,,,1,0,1,0,1,33,89,30,,,,,,,,,,,,,,,,,,,,,,,595.8388275999987,None,595.8388275999987,None,595.3384960999992,None,f,0.537097200000062,595.8388275999987,None,,,,,,,,,,,,,k,001,2021_Jul_06_1616,toilet,2021.1.3,99.92974938530296,
180,0,-4,4,1.06,,,,,1,0,1,0,1,34,90,47,,,,,,,,,,,,,,,,,,,,,,,597.3898872999998,None,597.3898872999998,None,596.8895507999987,None,j,0.5698513999996067,597.3898872999998,None,,,,,,,,,,,,,k,001,2021_Jul_06_1616,toilet,2021.1.3,99.92974938530296,
180,180,4,-4,0.94,,,,,1,0,1,0,1,35,91,36,,,,,,,,,,,,,,,,,,,,,,,598.9710509999986,None,598.9710509999986,None,598.4706195999988,None,j,0.5406411999992997,598.9710509999986,None,,,,,,,,,,,,,k,001,2021_Jul_06_1616,toilet,2021.1.3,99.92974938530296,
0,0,-4,4,0.97,,,,,1,0,1,0,1,36,92,2,,,,,,,,,,,,,,,,,,,,,,,600.5220069999996,None,600.5220069999996,None,600.0216681999991,None,f,1.1497493000006216,600.5220069999996,None,,,,,,,,,,,,,k,001,2021_Jul_06_1616,toilet,2021.1.3,99.92974938530296,
180,180,-4,4,1.06,,,,,1,0,1,0,1,37,93,33,,,,,,,,,,,,,,,,,,,,,,,602.6734707999985,None,602.6734707999985,None,602.1731277999988,None,j,0.5503155999995215,602.6734707999985,None,,,,,,,,,,,,,k,001,2021_Jul_06_1616,toilet,2021.1.3,99.92974938530296,
0,180,-4,4,0.97,,,,,1,0,1,0,1,38,94,16,,,,,,,,,,,,,,,,,,,,,,,604.2345329999989,None,604.2345329999989,None,603.7341906999991,None,f,0.8933545999989292,604.2345329999989,None,,,,,,,,,,,,,k,001,2021_Jul_06_1616,toilet,2021.1.3,99.92974938530296,
180,180,-4,4,1.0,,,,,1,0,1,0,1,39,95,31,,,,,,,,,,,,,,,,,,,,,,,606.145914499999,None,606.145914499999,None,605.645483799999,None,f,0.5977420999988681,606.145914499999,None,,,,,,,,,,,,,k,001,2021_Jul_06_1616,toilet,2021.1.3,99.92974938530296,
180,0,4,-4,1.15,,,,,1,0,1,0,1,40,96,55,,,,,,,,,,,,,,,,,,,,,,,607.7469076999987,None,607.7469076999987,None,607.2466052999989,None,f,0.5008426000003965,607.7469076999987,None,,,,,,,,,,,,,k,001,2021_Jul_06_1616,toilet,2021.1.3,99.92974938530296,
180,0,4,-4,0.85,,,,,1,0,1,0,1,41,97,49,,,,,,,,,,,,,,,,,,,,,,,609.2479267999988,None,609.2479267999988,None,608.7475878999994,None,j,0.4878067999998166,609.2479267999988,None,,,,,,,,,,,,,k,001,2021_Jul_06_1616,toilet,2021.1.3,99.92974938530296,
0,180,4,-4,0.97,,,,,1,0,1,0,1,42,98,23,,,,,,,,,,,,,,,,,,,,,,,610.7389346999989,None,610.7389346999989,None,610.2385998999998,None,f,1.2529002999999648,610.7389346999989,None,,,,,,,,,,,,,k,001,2021_Jul_06_1616,toilet,2021.1.3,99.92974938530296,
180,180,4,-4,1.0,,,,,1,0,1,0,1,43,99,38,,,,,,,,,,,,,,,,,,,,,,,613.0104926999993,None,613.0104926999993,None,612.5102159999988,None,f,1.5413714000005712,613.0104926999993,None,,,,,,,,,,,,,k,001,2021_Jul_06_1616,toilet,2021.1.3,99.92974938530296,
180,0,-4,4,1.03,,,,,1,0,1,0,1,44,100,46,,,,,,,,,,,,,,,,,,,,,,,615.5522044999998,None,615.5522044999998,None,615.0518612999986,None,j,1.5435525000011694,615.5522044999998,None,,,,,,,,,,,,,k,001,2021_Jul_06_1616,toilet,2021.1.3,99.92974938530296,
0,0,4,-4,0.97,,,,,1,0,1,0,1,45,101,9,,,,,,,,,,,,,,,,,,,,,,,618.1039327999988,None,618.1039327999988,None,617.6035921999992,None,j,1.1997835999991366,618.1039327999988,None,,,,,,,,,,,,,k,001,2021_Jul_06_1616,toilet,2021.1.3,99.92974938530296,
180,0,4,-4,1.06,,,,,1,0,1,0,1,46,102,54,,,,,,,,,,,,,,,,,,,,,,,620.3054868999989,None,620.3054868999989,None,619.8050787999982,None,f,0.5982363999992231,620.3054868999989,None,,,,,,,,,,,,,k,001,2021_Jul_06_1616,toilet,2021.1.3,99.92974938530296,
180,0,4,-4,1.0,,,,,1,0,1,0,1,47,103,52,,,,,,,,,,,,,,,,,,,,,,,621.916545099999,None,621.916545099999,None,621.4162442999987,None,j,1.2752032000007603,621.916545099999,None,,,,,,,,,,,,,k,001,2021_Jul_06_1616,toilet,2021.1.3,99.92974938530296,
180,0,-4,4,0.97,,,,,1,0,1,0,1,48,104,44,,,,,,,,,,,,,,,,,,,,,,,624.1980700999993,None,624.1980700999993,None,623.6977217999993,None,f,1.4416658999998617,624.1980700999993,None,,,,,,,,,,,,,k,001,2021_Jul_06_1616,toilet,2021.1.3,99.92974938530296,
0,0,4,-4,1.0,,,,,1,0,1,0,1,49,105,10,,,,,,,,,,,,,,,,,,,,,,,626.6497218999993,None,626.6497218999993,None,626.1493839999985,None,j,1.3899778000013612,626.6497218999993,None,,,,,,,,,,,,,k,001,2021_Jul_06_1616,toilet,2021.1.3,99.92974938530296,
180,180,-4,4,1.15,,,,,1,0,1,0,1,50,106,34,,,,,,,,,,,,,,,,,,,,,,,629.0414340999996,None,629.0414340999996,None,628.5411017999995,None,j,0.5022012999997969,629.0414340999996,None,,,,,,,,,,,,,k,001,2021_Jul_06_1616,toilet,2021.1.3,99.92974938530296,
0,180,-4,4,0.85,,,,,1,0,1,0,1,51,107,14,,,,,,,,,,,,,,,,,,,,,,,630.5523656999994,None,630.5523656999994,None,630.052029299999,None,f,0.5434005999995861,630.5523656999994,None,,,,,,,,,,,,,k,001,2021_Jul_06_1616,toilet,2021.1.3,99.92974938530296,
180,0,-4,4,0.85,,,,,1,0,1,0,1,52,108,42,,,,,,,,,,,,,,,,,,,,,,,632.1034209999998,None,632.1034209999998,None,631.603112499999,None,f,1.472350899999583,632.1034209999998,None,,,,,,,,,,,,,k,001,2021_Jul_06_1616,toilet,2021.1.3,99.92974938530296,
180,0,4,-4,0.94,,,,,1,0,1,0,1,53,109,50,,,,,,,,,,,,,,,,,,,,,,,634.5851508999986,None,634.5851508999986,None,634.0847708999991,None,j,0.8467823999999382,634.5851508999986,None,,,,,,,,,,,,,k,001,2021_Jul_06_1616,toilet,2021.1.3,99.92974938530296,
180,0,-4,4,0.94,,,,,1,0,1,0,1,54,110,43,,,,,,,,,,,,,,,,,,,,,,,636.4463651999995,None,636.4463651999995,None,635.9461159999992,None,f,1.9772821000005933,636.4463651999995,None,,,,,,,,,,,,,k,001,2021_Jul_06_1616,toilet,2021.1.3,99.92974938530296,
0,0,-4,4,1.15,,,,,1,0,1,0,1,55,111,6,,,,,,,,,,,,,,,,,,,,,,,639.4283860999985,None,639.4283860999985,None,638.9280430999988,None,j,0.5633551999999327,639.4283860999985,None,,,,,,,,,,,,,k,001,2021_Jul_06_1616,toilet,2021.1.3,99.92974938530296,
,,,,,,,,,1,0,1,0,,,,,,,,,,,,,,,,,,,,,,,,,,,,,,,,,,,,,640.0188245999998,None,space,2.0369128000002092,640.0188245999998,None,,,,,,,k,001,2021_Jul_06_1616,toilet,2021.1.3,99.92974938530296,
0,180,4,-4,0.94,,,,,2,0,2,0,0,0,0,22,,,,,,,,,,,,,,,,,642.0701819999995,None,space,1.3456096999998408,642.0701819999995,None,644.4417839999987,None,644.4417839999987,None,643.9414502,None,j,1.6939289000001736,644.4417839999987,None,,,,,,,,,,,,,k,001,2021_Jul_06_1616,toilet,2021.1.3,99.92974938530296,
180,180,-4,4,0.94,,,,,2,0,2,0,0,1,1,29,,,,,,,,,,,,,,,,,,,,,,,647.1435760999993,None,647.1435760999993,None,646.6532830999986,None,f,1.7602464999999938,647.1435760999993,None,,,,,,,,,,,,,k,001,2021_Jul_06_1616,toilet,2021.1.3,99.92974938530296,
180,0,4,-4,1.06,,,,,2,0,2,0,0,2,2,54,,,,,,,,,,,,,,,,,,,,,,,649.9154953999987,None,649.9154953999987,None,649.4152425999982,None,f,0.6523729000000458,649.9154953999987,None,,,,,,,,,,,,,k,001,2021_Jul_06_1616,toilet,2021.1.3,99.92974938530296,
0,0,4,-4,1.03,,,,,2,0,2,0,0,3,3,11,,,,,,,,,,,,,,,,,,,,,,,651.5766177999994,None,651.5766177999994,None,651.0763651999987,None,f,2.415267499998663,651.5766177999994,None,,,,,,,,,,,,,k,001,2021_Jul_06_1616,toilet,2021.1.3,99.92974938530296,
0,180,-4,4,1.0,,,,,2,0,2,0,0,4,4,17,,,,,,,,,,,,,,,,,,,,,,,654.9989365999991,None,654.9989365999991,None,654.4985828999997,None,j,1.9849032000001898,654.9989365999991,None,,,,,,,,,,,,,k,001,2021_Jul_06_1616,toilet,2021.1.3,99.92974938530296,
180,180,4,-4,1.15,,,,,2,0,2,0,0,5,5,41,,,,,,,,,,,,,,,,,,,,,,,657.9909863999983,None,657.9909863999983,None,657.5007047999989,None,f,0.4007261999995535,657.9909863999983,None,,,,,,,,,,,,,k,001,2021_Jul_06_1616,toilet,2021.1.3,99.92974938530296,
180,180,4,-4,0.94,,,,,2,0,2,0,0,6,6,36,,,,,,,,,,,,,,,,,,,,,,,659.3919174999992,None,659.3919174999992,None,658.8915900999982,None,j,0.40773149999949965,659.3919174999992,None,,,,,,,,,,,,,k,001,2021_Jul_06_1616,toilet,2021.1.3,99.92974938530296,
180,0,-4,4,1.15,,,,,2,0,2,0,0,7,7,48,,,,,,,,,,,,,,,,,,,,,,,660.8028760999987,None,660.8028760999987,None,660.3025388999995,None,j,0.48477119999915885,660.8028760999987,None,,,,,,,,,,,,,k,001,2021_Jul_06_1616,toilet,2021.1.3,99.92974938530296,
0,0,-4,4,1.0,,,,,2,0,2,0,0,8,8,3,,,,,,,,,,,,,,,,,,,,,,,662.2938829999985,None,662.2938829999985,None,661.7935492999986,None,f,1.3139971000000514,662.2938829999985,None,,,,,,,,,,,,,k,001,2021_Jul_06_1616,toilet,2021.1.3,99.92974938530296,
180,0,-4,4,0.97,,,,,2,0,2,0,0,9,9,44,,,,,,,,,,,,,,,,,,,,,,,664.6255490999993,None,664.6255490999993,None,664.1251324999994,None,f,0.6301750999991782,664.6255490999993,None,,,,,,,,,,,,,k,001,2021_Jul_06_1616,toilet,2021.1.3,99.92974938530296,
180,0,-4,4,0.85,,,,,2,0,2,0,0,10,10,42,,,,,,,,,,,,,,,,,,,,,,,666.2566082999983,None,666.2566082999983,None,665.7563205999995,None,f,0.551174500000343,666.2566082999983,None,,,,,,,,,,,,,k,001,2021_Jul_06_1616,toilet,2021.1.3,99.92974938530296,
0,180,4,-4,1.15,,,,,2,0,2,0,0,11,11,27,,,,,,,,,,,,,,,,,,,,,,,667.8076177999992,None,667.8076177999992,None,667.3076005999992,None,f,0.4721783000004507,667.8076177999992,None,,,,,,,,,,,,,k,001,2021_Jul_06_1616,toilet,2021.1.3,99.92974938530296,
180,180,4,-4,1.0,,,,,2,0,2,0,0,12,12,38,,,,,,,,,,,,,,,,,,,,,,,669.2886229999986,None,669.2886229999986,None,668.7882877999982,None,j,0.5430873999994219,669.2886229999986,None,,,,,,,,,,,,,k,001,2021_Jul_06_1616,toilet,2021.1.3,99.92974938530296,
0,0,-4,4,0.97,,,,,2,0,2,0,0,13,13,2,,,,,,,,,,,,,,,,,,,,,,,670.8496828999996,None,670.8496828999996,None,670.349343599999,None,j,0.4861646000008477,670.8496828999996,None,,,,,,,,,,,,,k,001,2021_Jul_06_1616,toilet,2021.1.3,99.92974938530296,
180,0,-4,4,0.94,,,,,2,0,2,0,0,14,14,43,,,,,,,,,,,,,,,,,,,,,,,672.3507031999998,None,672.3507031999998,None,671.8504544999996,None,f,0.3769529999990482,672.3507031999998,None,,,,,,,,,,,,,k,001,2021_Jul_06_1616,toilet,2021.1.3,99.92974938530296,
0,180,4,-4,1.0,,,,,2,0,2,0,0,15,15,24,,,,,,,,,,,,,,,,,,,,,,,673.7316371999987,None,673.7316371999987,None,673.2313701999992,None,j,0.8840938000012102,673.7316371999987,None,,,,,,,,,,,,,k,001,2021_Jul_06_1616,toilet,2021.1.3,99.92974938530296,
0,0,-4,4,1.06,,,,,2,0,2,0,0,16,16,5,,,,,,,,,,,,,,,,,,,,,,,675.6229200999987,None,675.6229200999987,None,675.1225838999999,None,j,0.5448353000010684,675.6229200999987,None,,,,,,,,,,,,,k,001,2021_Jul_06_1616,toilet,2021.1.3,99.92974938530296,
180,180,-4,4,1.03,,,,,2,0,2,0,0,17,17,32,,,,,,,,,,,,,,,,,,,,,,,677.1739713999996,None,677.1739713999996,None,676.6736403999985,None,j,0.561747199999445,677.1739713999996,None,,,,,,,,,,,,,k,001,2021_Jul_06_1616,toilet,2021.1.3,99.92974938530296,
180,180,-4,4,1.0,,,,,2,0,2,0,0,18,18,31,,,,,,,,,,,,,,,,,,,,,,,678.7450349999999,None,678.7450349999999,None,678.2446955999985,None,f,1.2786710000000312,678.7450349999999,None,,,,,,,,,,,,,k,001,2021_Jul_06_1616,toilet,2021.1.3,99.92974938530296,
0,180,-4,4,1.06,,,,,2,0,2,0,0,19,19,19,,,,,,,,,,,,,,,,,,,,,,,681.0366056999992,None,681.0366056999992,None,680.5362880999983,None,j,0.5711168000016187,681.0366056999992,None,,,,,,,,,,,,,k,001,2021_Jul_06_1616,toilet,2021.1.3,99.92974938530296,
0,180,4,-4,1.03,,,,,2,0,2,0,0,20,20,25,,,,,,,,,,,,,,,,,,,,,,,682.6076561999998,None,682.6076561999998,None,682.1073142999994,None,j,1.2081563000010647,682.6076561999998,None,,,,,,,,,,,,,k,001,2021_Jul_06_1616,toilet,2021.1.3,99.92974938530296,
0,0,4,-4,0.97,,,,,2,0,2,0,0,21,21,9,,,,,,,,,,,,,,,,,,,,,,,684.8291628999996,None,684.8291628999996,None,684.3288235,None,j,0.8426590999988548,684.8291628999996,None,,,,,,,,,,,,,k,001,2021_Jul_06_1616,toilet,2021.1.3,99.92974938530296,
180,180,-4,4,1.15,,,,,2,0,2,0,0,22,22,34,,,,,,,,,,,,,,,,,,,,,,,686.6905052999991,None,686.6905052999991,None,686.1900946999995,None,j,0.453279699999257,686.6905052999991,None,,,,,,,,,,,,,k,001,2021_Jul_06_1616,toilet,2021.1.3,99.92974938530296,
180,180,-4,4,1.06,,,,,2,0,2,0,0,23,23,33,,,,,,,,,,,,,,,,,,,,,,,688.1614541999988,None,688.1614541999988,None,687.6610920999992,None,j,0.5342402999995102,688.1614541999988,None,,,,,,,,,,,,,k,001,2021_Jul_06_1616,toilet,2021.1.3,99.92974938530296,
180,0,-4,4,1.03,,,,,2,0,2,0,0,24,24,46,,,,,,,,,,,,,,,,,,,,,,,689.7024618999985,None,689.7024618999985,None,689.2021172999994,None,f,1.2173714999989897,689.7024618999985,None,,,,,,,,,,,,,k,001,2021_Jul_06_1616,toilet,2021.1.3,99.92974938530296,
180,0,4,-4,0.85,,,,,2,0,2,0,0,25,25,49,,,,,,,,,,,,,,,,,,,,,,,691.9339696999996,None,691.9339696999996,None,691.4336343999985,None,j,0.5058155999995506,691.9339696999996,None,,,,,,,,,,,,,k,001,2021_Jul_06_1616,toilet,2021.1.3,99.92974938530296,
180,180,4,-4,1.06,,,,,2,0,2,0,0,26,26,40,,,,,,,,,,,,,,,,,,,,,,,693.4650115999993,None,693.4650115999993,None,692.9646672999988,None,f,0.5107484999989538,693.4650115999993,None,,,,,,,,,,,,,k,001,2021_Jul_06_1616,toilet,2021.1.3,99.92974938530296,
0,180,-4,4,1.15,,,,,2,0,2,0,0,27,27,20,,,,,,,,,,,,,,,,,,,,,,,694.9860476999984,None,694.9860476999984,None,694.485778799999,None,j,0.49378819999947154,694.9860476999984,None,,,,,,,,,,,,,k,001,2021_Jul_06_1616,toilet,2021.1.3,99.92974938530296,
180,0,-4,4,1.0,,,,,2,0,2,0,0,28,28,45,,,,,,,,,,,,,,,,,,,,,,,696.4970992999988,None,696.4970992999988,None,695.9967325999987,None,f,1.0946093999991717,696.4970992999988,None,,,,,,,,,,,,,k,001,2021_Jul_06_1616,toilet,2021.1.3,99.92974938530296,
180,0,4,-4,0.97,,,,,2,0,2,0,0,29,29,51,,,,,,,,,,,,,,,,,,,,,,,698.5985039999996,None,698.5985039999996,None,698.1081606999996,None,j,0.5774725999999646,698.5985039999996,None,,,,,,,,,,,,,k,001,2021_Jul_06_1616,toilet,2021.1.3,99.92974938530296,
0,180,-4,4,0.94,,,,,2,0,2,0,0,30,30,15,,,,,,,,,,,,,,,,,,,,,,,700.1895697999989,None,700.1895697999989,None,699.6892318999999,None,f,0.618122100000619,700.1895697999989,None,,,,,,,,,,,,,k,001,2021_Jul_06_1616,toilet,2021.1.3,99.92974938530296,
0,180,-4,4,1.03,,,,,2,0,2,0,0,31,31,18,,,,,,,,,,,,,,,,,,,,,,,701.8207569999995,None,701.8207569999995,None,701.3204347999999,None,j,1.0510747999996966,701.8207569999995,None,,,,,,,,,,,,,k,001,2021_Jul_06_1616,toilet,2021.1.3,99.92974938530296,
0,180,4,-4,1.06,,,,,2,0,2,0,0,32,32,26,,,,,,,,,,,,,,,,,,,,,,,703.8820756999994,None,703.8820756999994,None,703.3817391999983,None,f,0.6055317999998806,703.8820756999994,None,,,,,,,,,,,,,k,001,2021_Jul_06_1616,toilet,2021.1.3,99.92974938530296,
180,180,4,-4,1.03,,,,,2,0,2,0,0,33,33,39,,,,,,,,,,,,,,,,,,,,,,,705.4931661999999,None,705.4931661999999,None,704.9928398999982,None,f,1.474749900000461,705.4931661999999,None,,,,,,,,,,,,,k,001,2021_Jul_06_1616,toilet,2021.1.3,99.92974938530296,
0,0,-4,4,0.94,,,,,2,0,2,0,0,34,34,1,,,,,,,,,,,,,,,,,,,,,,,707.9848577999983,None,707.9848577999983,None,707.4845232999996,None,f,0.6787486000011995,707.9848577999983,None,,,,,,,,,,,,,k,001,2021_Jul_06_1616,toilet,2021.1.3,99.92974938530296,
0,180,-4,4,0.85,,,,,2,0,2,0,0,35,35,14,,,,,,,,,,,,,,,,,,,,,,,709.6660769999999,None,709.6660769999999,None,709.1657412999994,None,f,0.5496199999997771,709.6660769999999,None,,,,,,,,,,,,,k,001,2021_Jul_06_1616,toilet,2021.1.3,99.92974938530296,
180,180,4,-4,0.97,,,,,2,0,2,0,0,36,36,37,,,,,,,,,,,,,,,,,,,,,,,711.2270590999997,None,711.2270590999997,None,710.726717399999,None,j,0.7645842999991146,711.2270590999997,None,,,,,,,,,,,,,k,001,2021_Jul_06_1616,toilet,2021.1.3,99.92974938530296,
0,0,4,-4,1.06,,,,,2,0,2,0,0,37,37,12,,,,,,,,,,,,,,,,,,,,,,,712.9982578999989,None,712.9982578999989,None,712.4979196999993,None,f,0.6094254999989062,712.9982578999989,None,,,,,,,,,,,,,k,001,2021_Jul_06_1616,toilet,2021.1.3,99.92974938530296,
0,0,-4,4,1.03,,,,,2,0,2,0,0,38,38,4,,,,,,,,,,,,,,,,,,,,,,,714.6193528999993,None,714.6193528999993,None,714.1190138999991,None,j,0.5723476999992272,714.6193528999993,None,,,,,,,,,,,,,k,001,2021_Jul_06_1616,toilet,2021.1.3,99.92974938530296,
180,0,4,-4,1.0,,,,,2,0,2,0,0,39,39,52,,,,,,,,,,,,,,,,,,,,,,,716.1905140999988,None,716.1905140999988,None,715.6900761999987,None,j,2.9371074000009685,716.1905140999988,None,,,,,,,,,,,,,k,001,2021_Jul_06_1616,toilet,2021.1.3,99.92974938530296,
180,0,4,-4,1.03,,,,,2,0,2,0,0,40,40,53,,,,,,,,,,,,,,,,,,,,,,,720.1330987999991,None,720.1330987999991,None,719.6327499999989,None,j,1.2987936999998055,720.1330987999991,None,,,,,,,,,,,,,k,001,2021_Jul_06_1616,toilet,2021.1.3,99.92974938530296,
180,180,-4,4,0.85,,,,,2,0,2,0,0,41,41,28,,,,,,,,,,,,,,,,,,,,,,,722.4446628999995,None,722.4446628999995,None,721.9443165999983,None,f,0.5709631999998237,722.4446628999995,None,,,,,,,,,,,,,k,001,2021_Jul_06_1616,toilet,2021.1.3,99.92974938530296,
0,180,4,-4,0.85,,,,,2,0,2,0,0,42,42,21,,,,,,,,,,,,,,,,,,,,,,,724.0157905999986,None,724.0157905999986,None,723.5153816999991,None,j,0.4559540999998717,724.0157905999986,None,,,,,,,,,,,,,k,001,2021_Jul_06_1616,toilet,2021.1.3,99.92974938530296,
0,0,4,-4,0.94,,,,,2,0,2,0,0,43,43,8,,,,,,,,,,,,,,,,,,,,,,,725.4866889999994,None,725.4866889999994,None,724.9864136999986,None,j,0.45691449999867473,725.4866889999994,None,,,,,,,,,,,,,k,001,2021_Jul_06_1616,toilet,2021.1.3,99.92974938530296,
180,0,4,-4,0.94,,,,,2,0,2,0,0,44,44,50,,,,,,,,,,,,,,,,,,,,,,,726.9477422999989,None,726.9477422999989,None,726.4473693999989,None,j,0.5320216000000073,726.9477422999989,None,,,,,,,,,,,,,k,001,2021_Jul_06_1616,toilet,2021.1.3,99.92974938530296,
0,0,-4,4,0.85,,,,,2,0,2,0,0,45,45,0,,,,,,,,,,,,,,,,,,,,,,,728.4887555999994,None,728.4887555999994,None,727.9884177999993,None,f,0.3989372000014555,728.4887555999994,None,,,,,,,,,,,,,k,001,2021_Jul_06_1616,toilet,2021.1.3,99.92974938530296,
0,0,4,-4,1.0,,,,,2,0,2,0,0,46,46,10,,,,,,,,,,,,,,,,,,,,,,,729.8997085999999,None,729.8997085999999,None,729.3993716999994,None,j,0.4599757999985741,729.8997085999999,None,,,,,,,,,,,,,k,001,2021_Jul_06_1616,toilet,2021.1.3,99.92974938530296,
0,0,4,-4,1.15,,,,,2,0,2,0,0,47,47,13,,,,,,,,,,,,,,,,,,,,,,,731.3707981999996,None,731.3707981999996,None,730.8703828999987,None,f,0.4608435999998619,731.3707981999996,None,,,,,,,,,,,,,k,001,2021_Jul_06_1616,toilet,2021.1.3,99.92974938530296,
0,180,4,-4,0.97,,,,,2,0,2,0,0,48,48,23,,,,,,,,,,,,,,,,,,,,,,,732.8316989999985,None,732.8316989999985,None,732.3414438999989,None,j,0.5678986000002624,732.8316989999985,None,,,,,,,,,,,,,k,001,2021_Jul_06_1616,toilet,2021.1.3,99.92974938530296,
180,180,-4,4,0.97,,,,,2,0,2,0,0,49,49,30,,,,,,,,,,,,,,,,,,,,,,,734.4027654999991,None,734.4027654999991,None,733.902425799999,None,f,0.4368460999994568,734.4027654999991,None,,,,,,,,,,,,,k,001,2021_Jul_06_1616,toilet,2021.1.3,99.92974938530296,
0,0,-4,4,1.15,,,,,2,0,2,0,0,50,50,6,,,,,,,,,,,,,,,,,,,,,,,735.8437393999993,None,735.8437393999993,None,735.3433938999988,None,j,0.42000820000066597,735.8437393999993,None,,,,,,,,,,,,,k,001,2021_Jul_06_1616,toilet,2021.1.3,99.92974938530296,
0,0,4,-4,0.85,,,,,2,0,2,0,0,51,51,7,,,,,,,,,,,,,,,,,,,,,,,737.2747071999984,None,737.2747071999984,None,736.7743726999997,None,j,0.39691970000058063,737.2747071999984,None,,,,,,,,,,,,,k,001,2021_Jul_06_1616,toilet,2021.1.3,99.92974938530296,
180,0,-4,4,1.06,,,,,2,0,2,0,0,52,52,47,,,,,,,,,,,,,,,,,,,,,,,738.6757288999997,None,738.6757288999997,None,738.1754180999997,None,j,0.8839513000002626,738.6757288999997,None,,,,,,,,,,,,,k,001,2021_Jul_06_1616,toilet,2021.1.3,99.92974938530296,
180,180,4,-4,0.85,,,,,2,0,2,0,0,53,53,35,,,,,,,,,,,,,,,,,,,,,,,740.5769434999984,None,740.5769434999984,None,740.0766033,None,j,0.4546574000014516,740.5769434999984,None,,,,,,,,,,,,,k,001,2021_Jul_06_1616,toilet,2021.1.3,99.92974938530296,
0,180,-4,4,0.97,,,,,2,0,2,0,0,54,54,16,,,,,,,,,,,,,,,,,,,,,,,742.0379319999993,None,742.0379319999993,None,741.5376026999984,None,f,0.5456733999999415,742.0379319999993,None,,,,,,,,,,,,,k,001,2021_Jul_06_1616,toilet,2021.1.3,99.92974938530296,
180,0,4,-4,1.15,,,,,2,0,2,0,0,55,55,55,,,,,,,,,,,,,,,,,,,,,,,743.588984,None,743.588984,None,743.0886420999996,None,f,0.4827119000001403,743.588984,None,,,,,,,,,,,,,k,001,2021_Jul_06_1616,toilet,2021.1.3,99.92974938530296,
0,180,-4,4,0.85,,,,,2,0,2,0,1,0,56,14,,,,,,,,,,,,,,,,,,,,,,,745.0900777999996,None,745.0900777999996,None,744.5896649999995,None,f,0.5017145999991044,745.0900777999996,None,,,,,,,,,,,,,k,001,2021_Jul_06_1616,toilet,2021.1.3,99.92974938530296,
180,180,4,-4,1.0,,,,,2,0,2,0,1,1,57,38,,,,,,,,,,,,,,,,,,,,,,,746.6011262999982,None,746.6011262999982,None,746.1007281999991,None,j,0.7026617999999871,746.6011262999982,None,,,,,,,,,,,,,k,001,2021_Jul_06_1616,toilet,2021.1.3,99.92974938530296,
180,180,-4,4,0.94,,,,,2,0,2,0,1,2,58,29,,,,,,,,,,,,,,,,,,,,,,,748.3221935999991,None,748.3221935999991,None,747.8218566999985,None,f,2.5335181999998895,748.3221935999991,None,,,,,,,,,,,,,k,001,2021_Jul_06_1616,toilet,2021.1.3,99.92974938530296,
0,180,4,-4,1.0,,,,,2,0,2,0,1,3,59,24,,,,,,,,,,,,,,,,,,,,,,,751.8746038999998,None,751.8746038999998,None,751.3742620999983,None,j,2.5650717000007717,751.8746038999998,None,,,,,,,,,,,,,k,001,2021_Jul_06_1616,toilet,2021.1.3,99.92974938530296,
180,0,-4,4,1.03,,,,,2,0,2,0,1,4,60,46,,,,,,,,,,,,,,,,,,,,,,,755.4470272999988,None,755.4470272999988,None,754.9466928999991,None,j,0.5605863000000681,755.4470272999988,None,,,,,,,,,,,,,k,001,2021_Jul_06_1616,toilet,2021.1.3,99.92974938530296,
180,0,4,-4,0.94,,,,,2,0,2,0,1,5,61,50,,,,,,,,,,,,,,,,,,,,,,,757.0080979999984,None,757.0080979999984,None,756.5077496999984,None,j,0.5195674000005965,757.0080979999984,None,,,,,,,,,,,,,k,001,2021_Jul_06_1616,toilet,2021.1.3,99.92974938530296,
0,180,-4,4,1.0,,,,,2,0,2,0,1,6,62,17,,,,,,,,,,,,,,,,,,,,,,,758.5291156999992,None,758.5291156999992,None,758.0287748999999,None,j,1.5746577000008983,758.5291156999992,None,,,,,,,,,,,,,k,001,2021_Jul_06_1616,toilet,2021.1.3,99.92974938530296,
180,0,4,-4,1.03,,,,,2,0,2,0,1,7,63,53,,,,,,,,,,,,,,,,,,,,,,,761.1209666999985,None,761.1209666999985,None,760.6206152999985,None,j,0.5506763999983377,761.1209666999985,None,,,,,,,,,,,,,k,001,2021_Jul_06_1616,toilet,2021.1.3,99.92974938530296,
180,180,-4,4,0.85,,,,,2,0,2,0,1,8,64,28,,,,,,,,,,,,,,,,,,,,,,,762.6819239999986,None,762.6819239999986,None,762.1815886999993,None,f,0.4138442000003124,762.6819239999986,None,,,,,,,,,,,,,k,001,2021_Jul_06_1616,toilet,2021.1.3,99.92974938530296,
180,0,4,-4,0.85,,,,,2,0,2,0,1,9,65,49,,,,,,,,,,,,,,,,,,,,,,,764.1028878999987,None,764.1028878999987,None,763.6025476999985,None,j,0.49689910000051896,764.1028878999987,None,,,,,,,,,,,,,k,001,2021_Jul_06_1616,toilet,2021.1.3,99.92974938530296,
0,180,4,-4,0.85,,,,,2,0,2,0,1,10,66,21,,,,,,,,,,,,,,,,,,,,,,,765.6139189999994,None,765.6139189999994,None,765.1135787999992,None,j,0.905715799999598,765.6139189999994,None,,,,,,,,,,,,,k,001,2021_Jul_06_1616,toilet,2021.1.3,99.92974938530296,
180,180,4,-4,0.85,,,,,2,0,2,0,1,11,67,35,,,,,,,,,,,,,,,,,,,,,,,767.5252941999988,None,767.5252941999988,None,767.0248496999993,None,j,0.4662955999992846,767.5252941999988,None,,,,,,,,,,,,,k,001,2021_Jul_06_1616,toilet,2021.1.3,99.92974938530296,
180,0,4,-4,1.0,,,,,2,0,2,0,1,12,68,52,,,,,,,,,,,,,,,,,,,,,,,768.9963043999996,None,768.9963043999996,None,768.4959114999983,None,j,0.80335180000111,768.9963043999996,None,,,,,,,,,,,,,k,001,2021_Jul_06_1616,toilet,2021.1.3,99.92974938530296,
180,0,-4,4,0.97,,,,,2,0,2,0,1,13,69,44,,,,,,,,,,,,,,,,,,,,,,,770.8074398999997,None,770.8074398999997,None,770.3071018999999,None,f,1.1683063000000402,770.8074398999997,None,,,,,,,,,,,,,k,001,2021_Jul_06_1616,toilet,2021.1.3,99.92974938530296,
180,180,4,-4,1.03,,,,,2,0,2,0,1,14,70,39,,,,,,,,,,,,,,,,,,,,,,,772.9889177999994,None,772.9889177999994,None,772.4885749999994,None,f,0.6347090000017488,772.9889177999994,None,,,,,,,,,,,,,k,001,2021_Jul_06_1616,toilet,2021.1.3,99.92974938530296,
0,180,4,-4,1.15,,,,,2,0,2,0,1,15,71,27,,,,,,,,,,,,,,,,,,,,,,,774.6300304999986,None,774.6300304999986,None,774.1296905999989,None,f,0.6577240999995411,774.6300304999986,None,,,,,,,,,,,,,k,001,2021_Jul_06_1616,toilet,2021.1.3,99.92974938530296,
0,0,-4,4,1.06,,,,,2,0,2,0,1,16,72,5,,,,,,,,,,,,,,,,,,,,,,,776.3011604999992,None,776.3011604999992,None,775.8008999999984,None,j,0.602447299999767,776.3011604999992,None,,,,,,,,,,,,,k,001,2021_Jul_06_1616,toilet,2021.1.3,99.92974938530296,
180,180,-4,4,1.06,,,,,2,0,2,0,1,17,73,33,,,,,,,,,,,,,,,,,,,,,,,777.9122529999986,None,777.9122529999986,None,777.4119154999989,None,j,1.1354369000000588,777.9122529999986,None,,,,,,,,,,,,,k,001,2021_Jul_06_1616,toilet,2021.1.3,99.92974938530296,
0,0,4,-4,0.97,,,,,2,0,2,0,1,18,74,9,,,,,,,,,,,,,,,,,,,,,,,780.0536981999994,None,780.0536981999994,None,779.5533626999986,None,j,0.7219958000005136,780.0536981999994,None,,,,,,,,,,,,,k,001,2021_Jul_06_1616,toilet,2021.1.3,99.92974938530296,
180,180,4,-4,0.97,,,,,2,0,2,0,1,19,75,37,,,,,,,,,,,,,,,,,,,,,,,781.794902399999,None,781.794902399999,None,781.2945317999984,None,j,0.7408124000012322,781.794902399999,None,,,,,,,,,,,,,k,001,2021_Jul_06_1616,toilet,2021.1.3,99.92974938530296,
180,0,4,-4,0.97,,,,,2,0,2,0,1,20,76,51,,,,,,,,,,,,,,,,,,,,,,,783.5361611999997,None,783.5361611999997,None,783.0358148999985,None,j,1.159555199999886,783.5361611999997,None,,,,,,,,,,,,,k,001,2021_Jul_06_1616,toilet,2021.1.3,99.92974938530296,
0,180,4,-4,0.94,,,,,2,0,2,0,1,21,77,22,,,,,,,,,,,,,,,,,,,,,,,785.6975257999984,None,785.6975257999984,None,785.1971927999984,None,j,1.0780660999989777,785.6975257999984,None,,,,,,,,,,,,,k,001,2021_Jul_06_1616,toilet,2021.1.3,99.92974938530296,
180,180,4,-4,1.06,,,,,2,0,2,0,1,22,78,40,,,,,,,,,,,,,,,,,,,,,,,787.7789398999994,None,787.7789398999994,None,787.2785955999989,None,f,1.1886686999987433,787.7789398999994,None,,,,,,,,,,,,,k,001,2021_Jul_06_1616,toilet,2021.1.3,99.92974938530296,
0,180,4,-4,1.03,,,,,2,0,2,0,1,23,79,25,,,,,,,,,,,,,,,,,,,,,,,789.9705027,None,789.9705027,None,789.4701137999982,None,f,1.461418799999592,789.9705027,None,,,,,,,,,,,,,k,001,2021_Jul_06_1616,toilet,2021.1.3,99.92974938530296,
0,0,-4,4,1.15,,,,,2,0,2,0,1,24,80,6,,,,,,,,,,,,,,,,,,,,,,,792.4421331999984,None,792.4421331999984,None,791.9417667999987,None,j,0.4615652000011323,792.4421331999984,None,,,,,,,,,,,,,k,001,2021_Jul_06_1616,toilet,2021.1.3,99.92974938530296,
0,180,4,-4,1.06,,,,,2,0,2,0,1,25,81,26,,,,,,,,,,,,,,,,,,,,,,,793.9131011999998,None,793.9131011999998,None,793.4127635999994,None,f,0.526620799999364,793.9131011999998,None,,,,,,,,,,,,,k,001,2021_Jul_06_1616,toilet,2021.1.3,99.92974938530296,
0,180,-4,4,0.97,,,,,2,0,2,0,1,26,82,16,,,,,,,,,,,,,,,,,,,,,,,795.4541468999996,None,795.4541468999996,None,794.9538146999985,None,j,1.3056820000001608,795.4541468999996,None,,,,,,,,,,,,,k,001,2021_Jul_06_1616,toilet,2021.1.3,99.92974938530296,
0,0,-4,4,1.0,,,,,2,0,2,0,1,27,83,3,,,,,,,,,,,,,,,,,,,,,,,797.7858217999983,None,797.7858217999983,None,797.2853971999994,None,f,0.637748899998769,797.7858217999983,None,,,,,,,,,,,,,k,001,2021_Jul_06_1616,toilet,2021.1.3,99.92974938530296,
180,180,4,-4,0.94,,,,,2,0,2,0,1,28,84,36,,,,,,,,,,,,,,,,,,,,,,,799.4268359999987,None,799.4268359999987,None,798.9265122999986,None,j,0.6449073999992834,799.4268359999987,None,,,,,,,,,,,,,k,001,2021_Jul_06_1616,toilet,2021.1.3,99.92974938530296,
180,180,4,-4,1.15,,,,,2,0,2,0,1,29,85,41,,,,,,,,,,,,,,,,,,,,,,,801.0779577999983,None,801.0779577999983,None,800.5776250999988,None,f,0.49762770000052114,801.0779577999983,None,,,,,,,,,,,,,k,001,2021_Jul_06_1616,toilet,2021.1.3,99.92974938530296,
0,0,-4,4,0.85,,,,,2,0,2,0,1,30,86,0,,,,,,,,,,,,,,,,,,,,,,,802.5789760999996,None,802.5789760999996,None,802.0786515999989,None,f,0.5486430000000837,802.5789760999996,None,,,,,,,,,,,,,k,001,2021_Jul_06_1616,toilet,2021.1.3,99.92974938530296,
0,0,4,-4,1.03,,,,,2,0,2,0,1,31,87,11,,,,,,,,,,,,,,,,,,,,,,,804.1400337999985,None,804.1400337999985,None,803.6396947999983,None,f,0.4755922999993345,804.1400337999985,None,,,,,,,,,,,,,k,001,2021_Jul_06_1616,toilet,2021.1.3,99.92974938530296,
0,0,-4,4,0.94,,,,,2,0,2,0,1,32,88,1,,,,,,,,,,,,,,,,,,,,,,,805.6310426999989,None,805.6310426999989,None,805.1307817999987,None,f,0.6327265999989322,805.6310426999989,None,,,,,,,,,,,,,k,001,2021_Jul_06_1616,toilet,2021.1.3,99.92974938530296,
0,0,4,-4,1.06,,,,,2,0,2,0,1,33,89,12,,,,,,,,,,,,,,,,,,,,,,,807.2821598999999,None,807.2821598999999,None,806.7818281999989,None,j,0.5174100000003818,807.2821598999999,None,,,,,,,,,,,,,k,001,2021_Jul_06_1616,toilet,2021.1.3,99.92974938530296,
180,180,-4,4,1.15,,,,,2,0,2,0,1,34,90,34,,,,,,,,,,,,,,,,,,,,,,,808.8031925999985,None,808.8031925999985,None,808.3028528999985,None,j,0.45245059999979276,808.8031925999985,None,,,,,,,,,,,,,k,001,2021_Jul_06_1616,toilet,2021.1.3,99.92974938530296,
0,0,-4,4,0.97,,,,,2,0,2,0,1,35,91,2,,,,,,,,,,,,,,,,,,,,,,,810.2741919,None,810.2741919,None,809.7738496999991,None,f,0.5495761999991373,810.2741919,None,,,,,,,,,,,,,k,001,2021_Jul_06_1616,toilet,2021.1.3,99.92974938530296,
180,180,-4,4,1.03,,,,,2,0,2,0,1,36,92,32,,,,,,,,,,,,,,,,,,,,,,,811.835360699999,None,811.835360699999,None,811.334938,None,j,0.6682835999999952,811.835360699999,None,,,,,,,,,,,,,k,001,2021_Jul_06_1616,toilet,2021.1.3,99.92974938530296,
0,180,-4,4,1.15,,,,,2,0,2,0,1,37,93,20,,,,,,,,,,,,,,,,,,,,,,,813.5163847999993,None,813.5163847999993,None,813.0161393999988,None,j,0.5871836999995139,813.5163847999993,None,,,,,,,,,,,,,k,001,2021_Jul_06_1616,toilet,2021.1.3,99.92974938530296,
0,180,-4,4,1.06,,,,,2,0,2,0,1,38,94,19,,,,,,,,,,,,,,,,,,,,,,,815.1074659999995,None,815.1074659999995,None,814.6071559999982,None,j,1.1882751000011922,815.1074659999995,None,,,,,,,,,,,,,k,001,2021_Jul_06_1616,toilet,2021.1.3,99.92974938530296,
180,180,-4,4,0.97,,,,,2,0,2,0,1,39,95,30,,,,,,,,,,,,,,,,,,,,,,,817.3089565999999,None,817.3089565999999,None,816.8086178999984,None,f,1.2747739000005822,817.3089565999999,None,,,,,,,,,,,,,k,001,2021_Jul_06_1616,toilet,2021.1.3,99.92974938530296,
0,0,-4,4,1.03,,,,,2,0,2,0,1,40,96,4,,,,,,,,,,,,,,,,,,,,,,,819.6106139999993,None,819.6106139999993,None,819.1101780999998,None,j,1.5009336000002804,819.6106139999993,None,,,,,,,,,,,,,k,001,2021_Jul_06_1616,toilet,2021.1.3,99.92974938530296,
0,0,4,-4,0.94,,,,,2,0,2,0,1,41,97,8,,,,,,,,,,,,,,,,,,,,,,,822.1122049999994,None,822.1122049999994,None,821.6118708999984,None,j,0.823528199998691,822.1122049999994,None,,,,,,,,,,,,,k,001,2021_Jul_06_1616,toilet,2021.1.3,99.92974938530296,
180,0,-4,4,0.94,,,,,2,0,2,0,1,42,98,43,,,,,,,,,,,,,,,,,,,,,,,823.9434484999983,None,823.9434484999983,None,823.4431109999987,None,f,1.4881965999993554,823.9434484999983,None,,,,,,,,,,,,,k,001,2021_Jul_06_1616,toilet,2021.1.3,99.92974938530296,
0,0,4,-4,1.15,,,,,2,0,2,0,1,43,99,13,,,,,,,,,,,,,,,,,,,,,,,826.4352311999992,None,826.4352311999992,None,825.9348081999997,None,f,0.532451699999001,826.4352311999992,None,,,,,,,,,,,,,k,001,2021_Jul_06_1616,toilet,2021.1.3,99.92974938530296,
180,0,-4,4,0.85,,,,,2,0,2,0,1,44,100,42,,,,,,,,,,,,,,,,,,,,,,,827.9862748999985,None,827.9862748999985,None,827.4859326999995,None,f,0.8533913000010216,827.9862748999985,None,,,,,,,,,,,,,k,001,2021_Jul_06_1616,toilet,2021.1.3,99.92974938530296,
180,180,-4,4,1.0,,,,,2,0,2,0,1,45,101,31,,,,,,,,,,,,,,,,,,,,,,,829.8474594999989,None,829.8474594999989,None,829.3471192999987,None,j,1.7601503000005323,829.8474594999989,None,,,,,,,,,,,,,k,001,2021_Jul_06_1616,toilet,2021.1.3,99.92974938530296,
180,0,-4,4,1.0,,,,,2,0,2,0,1,46,102,45,,,,,,,,,,,,,,,,,,,,,,,832.6193396999988,None,832.6193396999988,None,832.1190017999998,None,f,0.7964341999995668,832.6193396999988,None,,,,,,,,,,,,,k,001,2021_Jul_06_1616,toilet,2021.1.3,99.92974938530296,
0,180,4,-4,0.97,,,,,2,0,2,0,1,47,103,23,,,,,,,,,,,,,,,,,,,,,,,834.4305621999993,None,834.4305621999993,None,833.9303179999988,None,j,1.1290740000004007,834.4305621999993,None,,,,,,,,,,,,,k,001,2021_Jul_06_1616,toilet,2021.1.3,99.92974938530296,
0,180,-4,4,1.03,,,,,2,0,2,0,1,48,104,18,,,,,,,,,,,,,,,,,,,,,,,836.5720169999986,None,836.5720169999986,None,836.0716825999989,None,j,1.1316229999993084,836.5720169999986,None,,,,,,,,,,,,,k,001,2021_Jul_06_1616,toilet,2021.1.3,99.92974938530296,
180,0,4,-4,1.06,,,,,2,0,2,0,1,49,105,54,,,,,,,,,,,,,,,,,,,,,,,838.7034582999986,None,838.7034582999986,None,838.2031207999989,None,f,0.7763523000012356,838.7034582999986,None,,,,,,,,,,,,,k,001,2021_Jul_06_1616,toilet,2021.1.3,99.92974938530296,
180,0,4,-4,1.15,,,,,2,0,2,0,1,50,106,55,,,,,,,,,,,,,,,,,,,,,,,840.5046880999998,None,840.5046880999998,None,840.0043418999994,None,f,0.8950174000001425,840.5046880999998,None,,,,,,,,,,,,,k,001,2021_Jul_06_1616,toilet,2021.1.3,99.92974938530296,
180,0,-4,4,1.06,,,,,2,0,2,0,1,51,107,47,,,,,,,,,,,,,,,,,,,,,,,842.4160490999984,None,842.4160490999984,None,841.9156379999986,None,j,0.983618899999783,842.4160490999984,None,,,,,,,,,,,,,k,001,2021_Jul_06_1616,toilet,2021.1.3,99.92974938530296,
0,0,4,-4,1.0,,,,,2,0,2,0,1,52,108,10,,,,,,,,,,,,,,,,,,,,,,,844.4073268999982,None,844.4073268999982,None,843.9069852999983,None,j,0.976381799999217,844.4073268999982,None,,,,,,,,,,,,,k,001,2021_Jul_06_1616,toilet,2021.1.3,99.92974938530296,
0,0,4,-4,0.85,,,,,2,0,2,0,1,53,109,7,,,,,,,,,,,,,,,,,,,,,,,846.4086817999996,None,846.4086817999996,None,845.9083418999999,None,j,0.4309763000001112,846.4086817999996,None,,,,,,,,,,,,,k,001,2021_Jul_06_1616,toilet,2021.1.3,99.92974938530296,
180,0,-4,4,1.15,,,,,2,0,2,0,1,54,110,48,,,,,,,,,,,,,,,,,,,,,,,847.8496596999994,None,847.8496596999994,None,847.3493174999985,None,j,0.5739631000014924,847.8496596999994,None,,,,,,,,,,,,,k,001,2021_Jul_06_1616,toilet,2021.1.3,99.92974938530296,
0,180,-4,4,0.94,,,,,2,0,2,0,1,55,111,15,,,,,,,,,,,,,,,,,,,,,,,849.440818699999,None,849.440818699999,None,848.9404867999983,None,f,0.5667554999999993,849.440818699999,None,,,,,,,,,,,,,k,001,2021_Jul_06_1616,toilet,2021.1.3,99.92974938530296,
,,,,,,,,,2,0,2,0,,,,,,,,,,,,,,,,,,,,,,,,,,,,,,,,,,,,,850.0211309999995,None,space,1.6984227000011742,850.0211309999995,None,,,,,,,k,001,2021_Jul_06_1616,toilet,2021.1.3,99.92974938530296,
0,0,-4,4,1.15,,,,,3,0,3,0,0,0,0,6,,,,,,,,,,,,,,,,,851.7322891999993,None,space,1.3792633999983082,851.7322891999993,None,854.1239104999986,None,854.1239104999986,None,853.6235701999994,None,j,0.7796963999990112,854.1239104999986,None,,,,,,,,,,,,,k,001,2021_Jul_06_1616,toilet,2021.1.3,99.92974938530296,
180,180,4,-4,1.15,,,,,3,0,3,0,0,1,1,41,,,,,,,,,,,,,,,,,,,,,,,855.9151587999986,None,855.9151587999986,None,855.4147861999991,None,f,0.9085123000004387,855.9151587999986,None,,,,,,,,,,,,,k,001,2021_Jul_06_1616,toilet,2021.1.3,99.92974938530296,
0,180,4,-4,0.85,,,,,3,0,3,0,0,2,2,21,,,,,,,,,,,,,,,,,,,,,,,857.8364306999993,None,857.8364306999993,None,857.3361777999999,None,j,0.8271136000003025,857.8364306999993,None,,,,,,,,,,,,,k,001,2021_Jul_06_1616,toilet,2021.1.3,99.92974938530296,
0,0,4,-4,1.0,,,,,3,0,3,0,0,3,3,10,,,,,,,,,,,,,,,,,,,,,,,859.6676652999995,None,859.6676652999995,None,859.1673317999994,None,j,1.475950499998362,859.6676652999995,None,,,,,,,,,,,,,k,001,2021_Jul_06_1616,toilet,2021.1.3,99.92974938530296,
180,0,-4,4,1.03,,,,,3,0,3,0,0,4,4,46,,,,,,,,,,,,,,,,,,,,,,,862.1493508999993,None,862.1493508999993,None,861.649010699999,None,j,1.9543668999995134,862.1493508999993,None,,,,,,,,,,,,,k,001,2021_Jul_06_1616,toilet,2021.1.3,99.92974938530296,
0,180,4,-4,1.0,,,,,3,0,3,0,0,5,5,24,,,,,,,,,,,,,,,,,,,,,,,865.1213980999983,None,865.1213980999983,None,864.6211060999995,None,j,1.9901418999997986,865.1213980999983,None,,,,,,,,,,,,,k,001,2021_Jul_06_1616,toilet,2021.1.3,99.92974938530296,
0,180,4,-4,1.15,,,,,3,0,3,0,0,6,6,27,,,,,,,,,,,,,,,,,,,,,,,868.1134016999986,None,868.1134016999986,None,867.6130545999986,None,f,0.48629219999929774,868.1134016999986,None,,,,,,,,,,,,,k,001,2021_Jul_06_1616,toilet,2021.1.3,99.92974938530296,
0,0,-4,4,1.03,,,,,3,0,3,0,0,7,7,4,,,,,,,,,,,,,,,,,,,,,,,869.6144138999989,None,869.6144138999989,None,869.1140689999993,None,j,0.6171709000009287,869.6144138999989,None,,,,,,,,,,,,,k,001,2021_Jul_06_1616,toilet,2021.1.3,99.92974938530296,
0,180,-4,4,0.85,,,,,3,0,3,0,0,8,8,14,,,,,,,,,,,,,,,,,,,,,,,871.2355881999993,None,871.2355881999993,None,870.735263999999,None,f,0.5000894000004337,871.2355881999993,None,,,,,,,,,,,,,k,001,2021_Jul_06_1616,toilet,2021.1.3,99.92974938530296,
180,0,4,-4,0.97,,,,,3,0,3,0,0,9,9,51,,,,,,,,,,,,,,,,,,,,,,,872.7465360999995,None,872.7465360999995,None,872.2462792999995,None,j,1.085007499999847,872.7465360999995,None,,,,,,,,,,,,,k,001,2021_Jul_06_1616,toilet,2021.1.3,99.92974938530296,
180,0,4,-4,0.85,,,,,3,0,3,0,0,10,10,49,,,,,,,,,,,,,,,,,,,,,,,874.8379508999988,None,874.8379508999988,None,874.3376128,None,j,0.49777929999982007,874.8379508999988,None,,,,,,,,,,,,,k,001,2021_Jul_06_1616,toilet,2021.1.3,99.92974938530296,
0,0,4,-4,0.94,,,,,3,0,3,0,0,11,11,8,,,,,,,,,,,,,,,,,,,,,,,876.3489735999992,None,876.3489735999992,None,875.8486317999996,None,j,1.082649500000116,876.3489735999992,None,,,,,,,,,,,,,k,001,2021_Jul_06_1616,toilet,2021.1.3,99.92974938530296,
180,180,-4,4,1.0,,,,,3,0,3,0,0,12,12,31,,,,,,,,,,,,,,,,,,,,,,,878.4503972999992,None,878.4503972999992,None,877.9501446999984,None,j,1.0771239000005153,878.4503972999992,None,,,,,,,,,,,,,k,001,2021_Jul_06_1616,toilet,2021.1.3,99.92974938530296,
0,180,4,-4,1.06,,,,,3,0,3,0,0,13,13,26,,,,,,,,,,,,,,,,,,,,,,,880.5318106999985,None,880.5318106999985,None,880.0314828999999,None,f,0.46774770000047283,880.5318106999985,None,,,,,,,,,,,,,k,001,2021_Jul_06_1616,toilet,2021.1.3,99.92974938530296,
0,0,4,-4,1.03,,,,,3,0,3,0,0,14,14,11,,,,,,,,,,,,,,,,,,,,,,,882.0028072999994,None,882.0028072999994,None,881.5024703999989,None,f,0.9009010000008857,882.0028072999994,None,,,,,,,,,,,,,k,001,2021_Jul_06_1616,toilet,2021.1.3,99.92974938530296,
180,0,-4,4,0.97,,,,,3,0,3,0,0,15,15,44,,,,,,,,,,,,,,,,,,,,,,,883.9040931,None,883.9040931,None,883.4037587999992,None,f,0.47153140000045823,883.9040931,None,,,,,,,,,,,,,k,001,2021_Jul_06_1616,toilet,2021.1.3,99.92974938530296,
0,0,-4,4,1.06,,,,,3,0,3,0,0,16,16,5,,,,,,,,,,,,,,,,,,,,,,,885.3751763,None,885.3751763,None,884.8747552999994,None,j,0.40842849999899045,885.3751763,None,,,,,,,,,,,,,k,001,2021_Jul_06_1616,toilet,2021.1.3,99.92974938530296,
0,0,4,-4,0.97,,,,,3,0,3,0,0,17,17,9,,,,,,,,,,,,,,,,,,,,,,,886.7960711999986,None,886.7960711999986,None,886.2957912999991,None,j,0.8115775999995094,886.7960711999986,None,,,,,,,,,,,,,k,001,2021_Jul_06_1616,toilet,2021.1.3,99.92974938530296,
180,0,4,-4,1.06,,,,,3,0,3,0,0,18,18,54,,,,,,,,,,,,,,,,,,,,,,,888.6072885999984,None,888.6072885999984,None,888.1069445999983,None,f,0.6482639000005292,888.6072885999984,None,,,,,,,,,,,,,k,001,2021_Jul_06_1616,toilet,2021.1.3,99.92974938530296,
180,180,4,-4,0.94,,,,,3,0,3,0,0,19,19,36,,,,,,,,,,,,,,,,,,,,,,,890.2584011999988,None,890.2584011999988,None,889.7580627999996,None,j,0.5653122999992775,890.2584011999988,None,,,,,,,,,,,,,k,001,2021_Jul_06_1616,toilet,2021.1.3,99.92974938530296,
180,180,-4,4,1.03,,,,,3,0,3,0,0,20,20,32,,,,,,,,,,,,,,,,,,,,,,,891.8494828999992,None,891.8494828999992,None,891.3491420999999,None,j,0.526172800000495,891.8494828999992,None,,,,,,,,,,,,,k,001,2021_Jul_06_1616,toilet,2021.1.3,99.92974938530296,
0,180,-4,4,0.97,,,,,3,0,3,0,0,21,21,16,,,,,,,,,,,,,,,,,,,,,,,893.3806002999991,None,893.3806002999991,None,892.8801769999991,None,f,1.0270036999991135,893.3806002999991,None,,,,,,,,,,,,,k,001,2021_Jul_06_1616,toilet,2021.1.3,99.92974938530296,
180,0,4,-4,1.0,,,,,3,0,3,0,0,22,22,52,,,,,,,,,,,,,,,,,,,,,,,895.4218996,None,895.4218996,None,894.9215591999982,None,j,0.7937480000000505,895.4218996,None,,,,,,,,,,,,,k,001,2021_Jul_06_1616,toilet,2021.1.3,99.92974938530296,
180,180,-4,4,0.94,,,,,3,0,3,0,0,23,23,29,,,,,,,,,,,,,,,,,,,,,,,897.2231206999986,None,897.2231206999986,None,896.7227801999998,None,f,0.7844070999999531,897.2231206999986,None,,,,,,,,,,,,,k,001,2021_Jul_06_1616,toilet,2021.1.3,99.92974938530296,
180,180,-4,4,1.15,,,,,3,0,3,0,0,24,24,34,,,,,,,,,,,,,,,,,,,,,,,899.0143409999982,None,899.0143409999982,None,898.5139958,None,j,0.49719480000021576,899.0143409999982,None,,,,,,,,,,,,,k,001,2021_Jul_06_1616,toilet,2021.1.3,99.92974938530296,
0,180,4,-4,0.97,,,,,3,0,3,0,0,25,25,23,,,,,,,,,,,,,,,,,,,,,,,900.5154060999994,None,900.5154060999994,None,900.0150115999986,None,f,0.6762854000007792,900.5154060999994,None,,,,,,,,,,,,,k,001,2021_Jul_06_1616,toilet,2021.1.3,99.92974938530296,
0,180,4,-4,0.94,,,,,3,0,3,0,0,26,26,22,,,,,,,,,,,,,,,,,,,,,,,902.206500799999,None,902.206500799999,None,901.7062493999983,None,j,0.6331669999999576,902.206500799999,None,,,,,,,,,,,,,k,001,2021_Jul_06_1616,toilet,2021.1.3,99.92974938530296,
180,0,4,-4,1.15,,,,,3,0,3,0,0,27,27,55,,,,,,,,,,,,,,,,,,,,,,,903.8476329999994,None,903.8476329999994,None,903.3472686999994,None,f,0.4638950999997178,903.8476329999994,None,,,,,,,,,,,,,k,001,2021_Jul_06_1616,toilet,2021.1.3,99.92974938530296,
0,0,4,-4,0.85,,,,,3,0,3,0,0,28,28,7,,,,,,,,,,,,,,,,,,,,,,,905.3186098999995,None,905.3186098999995,None,904.8182695999985,None,j,0.4330072000011569,905.3186098999995,None,,,,,,,,,,,,,k,001,2021_Jul_06_1616,toilet,2021.1.3,99.92974938530296,
0,180,-4,4,1.06,,,,,3,0,3,0,0,29,29,19,,,,,,,,,,,,,,,,,,,,,,,906.7695970999994,None,906.7695970999994,None,906.2692518999993,None,j,0.7259257000005164,906.7695970999994,None,,,,,,,,,,,,,k,001,2021_Jul_06_1616,toilet,2021.1.3,99.92974938530296,
0,0,4,-4,1.15,,,,,3,0,3,0,0,30,30,13,,,,,,,,,,,,,,,,,,,,,,,908.5007994999996,None,908.5007994999996,None,908.0005062,None,f,0.46695980000004056,908.5007994999996,None,,,,,,,,,,,,,k,001,2021_Jul_06_1616,toilet,2021.1.3,99.92974938530296,
180,0,4,-4,0.94,,,,,3,0,3,0,0,31,31,50,,,,,,,,,,,,,,,,,,,,,,,909.9717714999988,None,909.9717714999988,None,909.4714412999983,None,j,0.5957792999997764,909.9717714999988,None,,,,,,,,,,,,,k,001,2021_Jul_06_1616,toilet,2021.1.3,99.92974938530296,
180,180,-4,4,1.06,,,,,3,0,3,0,0,32,32,33,,,,,,,,,,,,,,,,,,,,,,,911.5728511999987,None,911.5728511999987,None,911.0725057,None,j,0.6427798999993684,911.5728511999987,None,,,,,,,,,,,,,k,001,2021_Jul_06_1616,toilet,2021.1.3,99.92974938530296,
180,180,4,-4,1.03,,,,,3,0,3,0,0,33,33,39,,,,,,,,,,,,,,,,,,,,,,,913.2239625999991,None,913.2239625999991,None,912.7236301999983,None,f,0.4637152999985119,913.2239625999991,None,,,,,,,,,,,,,k,001,2021_Jul_06_1616,toilet,2021.1.3,99.92974938530296,
180,0,-4,4,1.06,,,,,3,0,3,0,0,34,34,47,,,,,,,,,,,,,,,,,,,,,,,914.7049723,None,914.7049723,None,914.2046299999984,None,j,0.6786021999996592,914.7049723,None,,,,,,,,,,,,,k,001,2021_Jul_06_1616,toilet,2021.1.3,99.92974938530296,
180,0,-4,4,0.94,,,,,3,0,3,0,0,35,35,43,,,,,,,,,,,,,,,,,,,,,,,916.3861951999988,None,916.3861951999988,None,915.885836899999,None,f,0.4533789000015531,916.3861951999988,None,,,,,,,,,,,,,k,001,2021_Jul_06_1616,toilet,2021.1.3,99.92974938530296,
180,0,-4,4,1.15,,,,,3,0,3,0,0,36,36,48,,,,,,,,,,,,,,,,,,,,,,,917.8470989999987,None,917.8470989999987,None,917.3467717999993,None,j,0.4006301999997959,917.8470989999987,None,,,,,,,,,,,,,k,001,2021_Jul_06_1616,toilet,2021.1.3,99.92974938530296,
0,0,-4,4,1.0,,,,,3,0,3,0,0,37,37,3,,,,,,,,,,,,,,,,,,,,,,,919.2480483999989,None,919.2480483999989,None,918.7477148999988,None,j,0.7116093999993609,919.2480483999989,None,,,,,,,,,,,,,k,001,2021_Jul_06_1616,toilet,2021.1.3,99.92974938530296,
0,180,-4,4,1.0,,,,,3,0,3,0,0,38,38,17,,,,,,,,,,,,,,,,,,,,,,,920.9692412999993,None,920.9692412999993,None,920.4688753999999,None,j,0.7983574999998382,920.9692412999993,None,,,,,,,,,,,,,k,001,2021_Jul_06_1616,toilet,2021.1.3,99.92974938530296,
180,180,4,-4,1.0,,,,,3,0,3,0,0,39,39,38,,,,,,,,,,,,,,,,,,,,,,,922.7705002999992,None,922.7705002999992,None,922.2701042999997,None,j,1.1890485000003537,922.7705002999992,None,,,,,,,,,,,,,k,001,2021_Jul_06_1616,toilet,2021.1.3,99.92974938530296,
0,180,4,-4,1.03,,,,,3,0,3,0,0,40,40,25,,,,,,,,,,,,,,,,,,,,,,,924.9619301999992,None,924.9619301999992,None,924.4615798999985,None,j,0.8056140999997297,924.9619301999992,None,,,,,,,,,,,,,k,001,2021_Jul_06_1616,toilet,2021.1.3,99.92974938530296,
0,0,4,-4,1.06,,,,,3,0,3,0,0,41,41,12,,,,,,,,,,,,,,,,,,,,,,,926.7731461999992,None,926.7731461999992,None,926.2728140999989,None,f,0.5145324999994045,926.7731461999992,None,,,,,,,,,,,,,k,001,2021_Jul_06_1616,toilet,2021.1.3,99.92974938530296,
180,0,-4,4,0.85,,,,,3,0,3,0,0,42,42,42,,,,,,,,,,,,,,,,,,,,,,,928.3041908999985,None,928.3041908999985,None,927.8038488999991,None,f,0.3913819000008516,928.3041908999985,None,,,,,,,,,,,,,k,001,2021_Jul_06_1616,toilet,2021.1.3,99.92974938530296,
180,180,4,-4,0.97,,,,,3,0,3,0,0,43,43,37,,,,,,,,,,,,,,,,,,,,,,,929.7051331999992,None,929.7051331999992,None,929.2047943999987,None,j,0.590460899999016,929.7051331999992,None,,,,,,,,,,,,,k,001,2021_Jul_06_1616,toilet,2021.1.3,99.92974938530296,
180,180,-4,4,0.85,,,,,3,0,3,0,0,44,44,28,,,,,,,,,,,,,,,,,,,,,,,931.3062178,None,931.3062178,None,930.8059741999987,None,f,0.4614208000002691,931.3062178,None,,,,,,,,,,,,,k,001,2021_Jul_06_1616,toilet,2021.1.3,99.92974938530296,
0,180,-4,4,1.15,,,,,3,0,3,0,0,45,45,20,,,,,,,,,,,,,,,,,,,,,,,932.7672106999999,None,932.7672106999999,None,932.2668715,None,j,0.4724233000015374,932.7672106999999,None,,,,,,,,,,,,,k,001,2021_Jul_06_1616,toilet,2021.1.3,99.92974938530296,
0,0,-4,4,0.97,,,,,3,0,3,0,0,46,46,2,,,,,,,,,,,,,,,,,,,,,,,934.2482175999994,None,934.2482175999994,None,933.7478747999994,None,f,0.5114144999988639,934.2482175999994,None,,,,,,,,,,,,,k,001,2021_Jul_06_1616,toilet,2021.1.3,99.92974938530296,
180,180,-4,4,0.97,,,,,3,0,3,0,0,47,47,30,,,,,,,,,,,,,,,,,,,,,,,935.7692445999983,None,935.7692445999983,None,935.2689027999986,None,f,1.1824784999989788,935.7692445999983,None,,,,,,,,,,,,,k,001,2021_Jul_06_1616,toilet,2021.1.3,99.92974938530296,
180,0,-4,4,1.0,,,,,3,0,3,0,0,48,48,45,,,,,,,,,,,,,,,,,,,,,,,937.9608258999997,None,937.9608258999997,None,937.4604860999989,None,j,3.022821099999419,937.9608258999997,None,,,,,,,,,,,,,k,001,2021_Jul_06_1616,toilet,2021.1.3,99.92974938530296,
180,180,4,-4,1.06,,,,,3,0,3,0,0,49,49,40,,,,,,,,,,,,,,,,,,,,,,,941.9934532999996,None,941.9934532999996,None,941.4931189999988,None,f,0.5583378999999695,941.9934532999996,None,,,,,,,,,,,,,k,001,2021_Jul_06_1616,toilet,2021.1.3,99.92974938530296,
0,0,-4,4,0.94,,,,,3,0,3,0,0,50,50,1,,,,,,,,,,,,,,,,,,,,,,,943.5645238999987,None,943.5645238999987,None,943.0641835999995,None,f,0.42710079999960726,943.5645238999987,None,,,,,,,,,,,,,k,001,2021_Jul_06_1616,toilet,2021.1.3,99.92974938530296,
