ori_st,ori_pr,xpos_st,xpos_pr,size,trials_3.thisRepN,trials_3.thisTrialN,trials_3.thisN,trials_3.thisIndex,trials_2.thisRepN,trials_2.thisTrialN,trials_2.thisN,trials_2.thisIndex,trials.thisRepN,trials.thisTrialN,trials.thisN,trials.thisIndex,wel_pra.started,wel_pra.stopped,resp_wel.keys,resp_wel.rt,resp_wel.started,resp_wel.stopped,standard_pra.started,standard_pra.stopped,prove_pra.started,prove_pra.stopped,fixation.started,fixation.stopped,resp_pra.keys,resp_pra.rt,resp_pra.started,resp_pra.stopped,instr.started,instr.stopped,key_resp_2.keys,key_resp_2.rt,key_resp_2.started,key_resp_2.stopped,standard.started,standard.stopped,probe.started,probe.stopped,text.started,text.stopped,resp.keys,resp.rt,resp.started,resp.stopped,text_2.started,text_2.stopped,key_resp.keys,key_resp.rt,key_resp.started,key_resp.stopped,participant,session,date,expName,psychopyVersion,frameRate,
,,,,,,,,,,,,,,,,,28.037334499997087,None,space,140.22687470004894,28.037334499997087,None,,,,,,,,,,,,,,,,,,,,,,,,,,,,,,,,,d,001,2021_Jul_01_1855,toilet,2021.1.3,99.8907195579627,
180,0,-4,4,1.15,0,0,0,14,,,,,,,,,,,,,,,169.29230840003584,None,169.29230840003584,None,168.79196379997302,None,j,8.747874699998647,169.29230840003584,None,,,,,,,,,,,,,,,,,,,,,,,d,001,2021_Jul_01_1855,toilet,2021.1.3,99.8907195579627,
180,180,-4,4,0.85,0,1,1,9,,,,,,,,,,,,,,,179.0589270000346,None,179.0589270000346,None,178.55858069995884,None,f,1.1092103000264615,179.0589270000346,None,,,,,,,,,,,,,,,,,,,,,,,d,001,2021_Jul_01_1855,toilet,2021.1.3,99.8907195579627,
0,0,-4,4,0.85,0,2,2,0,,,,,,,,,,,,,,,181.18035409995355,None,181.18035409995355,None,180.68011139996815,None,f,0.7797186999814585,181.18035409995355,None,,,,,,,,,,,,,,,,,,,,,,,d,001,2021_Jul_01_1855,toilet,2021.1.3,99.8907195579627,
180,180,-4,4,0.85,0,3,3,8,,,,,,,,,,,,,,,182.96157639997546,None,182.96157639997546,None,182.46125819999725,None,f,0.6305175999877974,182.96157639997546,None,,,,,,,,,,,,,,,,,,,,,,,d,001,2021_Jul_01_1855,toilet,2021.1.3,99.8907195579627,
180,0,-4,4,0.85,0,4,4,13,,,,,,,,,,,,,,,184.59267000004184,None,184.59267000004184,None,184.09232950001024,None,f,0.5513294000411406,184.59267000004184,None,,,,,,,,,,,,,,,,,,,,,,,d,001,2021_Jul_01_1855,toilet,2021.1.3,99.8907195579627,
0,180,-4,4,0.85,0,5,5,4,,,,,,,,,,,,,,,186.1437265999848,None,186.1437265999848,None,185.64337469998281,None,f,0.7604642999358475,186.1437265999848,None,,,,,,,,,,,,,,,,,,,,,,,d,001,2021_Jul_01_1855,toilet,2021.1.3,99.8907195579627,
180,180,-4,4,1.15,0,6,6,11,,,,,,,,,,,,,,,187.91493420000188,None,187.91493420000188,None,187.41458129999228,None,j,0.4451285001123324,187.91493420000188,None,,,,,,,,,,,,,,,,,,,,,,,d,001,2021_Jul_01_1855,toilet,2021.1.3,99.8907195579627,
0,0,-4,4,1.15,0,7,7,2,,,,,,,,,,,,,,,189.36597529996652,None,189.36597529996652,None,188.86564980004914,None,j,0.41815510008018464,189.36597529996652,None,,,,,,,,,,,,,,,,,,,,,,,d,001,2021_Jul_01_1855,toilet,2021.1.3,99.8907195579627,
0,180,-4,4,1.15,0,8,8,6,,,,,,,,,,,,,,,190.79686350002885,None,190.79686350002885,None,190.29654759995174,None,j,0.36324239999521524,190.79686350002885,None,,,,,,,,,,,,,,,,,,,,,,,d,001,2021_Jul_01_1855,toilet,2021.1.3,99.8907195579627,
180,180,-4,4,1.15,0,9,9,10,,,,,,,,,,,,,,,192.16784180002287,None,192.16784180002287,None,191.66745890001766,None,j,0.3682807000586763,192.16784180002287,None,,,,,,,,,,,,,,,,,,,,,,,d,001,2021_Jul_01_1855,toilet,2021.1.3,99.8907195579627,
180,0,-4,4,0.85,0,10,10,12,,,,,,,,,,,,,,,193.53872830001637,None,193.53872830001637,None,193.03838969999924,None,f,0.46938920009415597,193.53872830001637,None,,,,,,,,,,,,,,,,,,,,,,,d,001,2021_Jul_01_1855,toilet,2021.1.3,99.8907195579627,
0,180,4,-4,0.85,0,11,11,5,,,,,,,,,,,,,,,195.01973759999964,None,195.01973759999964,None,194.5193879000144,None,j,0.41229959996417165,195.01973759999964,None,,,,,,,,,,,,,,,,,,,,,,,d,001,2021_Jul_01_1855,toilet,2021.1.3,99.8907195579627,
0,180,4,-4,1.15,0,12,12,7,,,,,,,,,,,,,,,196.44075259997044,None,196.44075259997044,None,195.9403525000671,None,f,0.38350009999703616,196.44075259997044,None,,,,,,,,,,,,,,,,,,,,,,,d,001,2021_Jul_01_1855,toilet,2021.1.3,99.8907195579627,
0,0,4,-4,0.85,0,13,13,1,,,,,,,,,,,,,,,197.8416450000368,None,197.8416450000368,None,197.34132360003423,None,j,0.34235990000888705,197.8416450000368,None,,,,,,,,,,,,,,,,,,,,,,,d,001,2021_Jul_01_1855,toilet,2021.1.3,99.8907195579627,
0,0,4,-4,1.15,0,14,14,3,,,,,,,,,,,,,,,199.19255519995932,None,199.19255519995932,None,198.69222039997112,None,f,0.4318920000223443,199.19255519995932,None,,,,,,,,,,,,,,,,,,,,,,,d,001,2021_Jul_01_1855,toilet,2021.1.3,99.8907195579627,
180,0,-4,4,1.15,0,15,15,15,,,,,,,,,,,,,,,200.64356740005314,None,200.64356740005314,None,200.1431944000069,None,j,0.5324805000564083,200.64356740005314,None,,,,,,,,,,,,,,,,,,,,,,,d,001,2021_Jul_01_1855,toilet,2021.1.3,99.8907195579627,
180,0,4,-4,1.03,,,,,0,0,0,0,0,0,0,53,,,,,,,,,,,,,,,,,201.19391030003317,None,space,94.57401650003158,201.19391030003317,None,296.7786534000188,None,296.7786534000188,None,296.2783126999857,None,j,0.5574814000865445,296.7786534000188,None,,,,,,,d,001,2021_Jul_01_1855,toilet,2021.1.3,99.8907195579627,
180,0,4,-4,0.97,,,,,0,0,0,0,0,1,1,51,,,,,,,,,,,,,,,,,,,,,,,298.34971900004894,None,298.34971900004894,None,297.84941290004645,None,j,0.5382303000660613,298.34971900004894,None,,,,,,,d,001,2021_Jul_01_1855,toilet,2021.1.3,99.8907195579627,
0,180,4,-4,0.94,,,,,0,0,0,0,0,2,2,22,,,,,,,,,,,,,,,,,,,,,,,299.8908357999753,None,299.8908357999753,None,299.39051339996513,None,j,1.0132277000229806,299.8908357999753,None,,,,,,,d,001,2021_Jul_01_1855,toilet,2021.1.3,99.8907195579627,
180,0,-4,4,0.85,,,,,0,0,0,0,0,3,3,42,,,,,,,,,,,,,,,,,,,,,,,301.91212950006593,None,301.91212950006593,None,301.4117873000214,None,f,0.4317657999927178,301.91212950006593,None,,,,,,,d,001,2021_Jul_01_1855,toilet,2021.1.3,99.8907195579627,
0,180,-4,4,1.03,,,,,0,0,0,0,0,4,4,18,,,,,,,,,,,,,,,,,,,,,,,303.34309690003283,None,303.34309690003283,None,302.84275690000504,None,j,0.44088680006098,303.34309690003283,None,,,,,,,d,001,2021_Jul_01_1855,toilet,2021.1.3,99.8907195579627,
180,180,-4,4,1.06,,,,,0,0,0,0,0,5,5,33,,,,,,,,,,,,,,,,,,,,,,,304.78407279995736,None,304.78407279995736,None,304.2837296000216,None,j,0.43983469996601343,304.78407279995736,None,,,,,,,d,001,2021_Jul_01_1855,toilet,2021.1.3,99.8907195579627,
180,180,4,-4,1.06,,,,,0,0,0,0,0,6,6,40,,,,,,,,,,,,,,,,,,,,,,,306.225133900065,None,306.225133900065,None,305.72471400001086,None,f,0.45503750001080334,306.225133900065,None,,,,,,,d,001,2021_Jul_01_1855,toilet,2021.1.3,99.8907195579627,
180,0,-4,4,1.03,,,,,0,0,0,0,0,7,7,46,,,,,,,,,,,,,,,,,,,,,,,307.6960868999595,None,307.6960868999595,None,307.1957107000053,None,f,0.7278238999424502,307.6960868999595,None,,,,,,,d,001,2021_Jul_01_1855,toilet,2021.1.3,99.8907195579627,
180,0,4,-4,1.0,,,,,0,0,0,0,0,8,8,52,,,,,,,,,,,,,,,,,,,,,,,309.42722299997695,None,309.42722299997695,None,308.9268914000131,None,j,0.7408679999643937,309.42722299997695,None,,,,,,,d,001,2021_Jul_01_1855,toilet,2021.1.3,99.8907195579627,
0,0,-4,4,0.85,,,,,0,0,0,0,0,9,9,0,,,,,,,,,,,,,,,,,,,,,,,311.16840540000703,None,311.16840540000703,None,310.66806130006444,None,f,0.5516366999363527,311.16840540000703,None,,,,,,,d,001,2021_Jul_01_1855,toilet,2021.1.3,99.8907195579627,
0,0,4,-4,0.97,,,,,0,0,0,0,0,10,10,9,,,,,,,,,,,,,,,,,,,,,,,312.7294592000544,None,312.7294592000544,None,312.2291192000266,None,j,0.9105216000461951,312.7294592000544,None,,,,,,,d,001,2021_Jul_01_1855,toilet,2021.1.3,99.8907195579627,
0,0,4,-4,0.85,,,,,0,0,0,0,0,11,11,7,,,,,,,,,,,,,,,,,,,,,,,314.6407605999848,None,314.6407605999848,None,314.14048279996496,None,j,0.5512775999959558,314.6407605999848,None,,,,,,,d,001,2021_Jul_01_1855,toilet,2021.1.3,99.8907195579627,
0,180,-4,4,0.94,,,,,0,0,0,0,0,12,12,15,,,,,,,,,,,,,,,,,,,,,,,316.2018088999903,None,316.2018088999903,None,315.70146590005606,None,f,0.5741895999526605,316.2018088999903,None,,,,,,,d,001,2021_Jul_01_1855,toilet,2021.1.3,99.8907195579627,
0,0,4,-4,1.0,,,,,0,0,0,0,0,13,13,10,,,,,,,,,,,,,,,,,,,,,,,317.7828792000655,None,317.7828792000655,None,317.2825406000484,None,f,0.5774102000286803,317.7828792000655,None,,,,,,,d,001,2021_Jul_01_1855,toilet,2021.1.3,99.8907195579627,
180,0,4,-4,0.94,,,,,0,0,0,0,0,14,14,50,,,,,,,,,,,,,,,,,,,,,,,319.3739569999743,None,319.3739569999743,None,318.8736246000044,None,j,0.4901032999623567,319.3739569999743,None,,,,,,,d,001,2021_Jul_01_1855,toilet,2021.1.3,99.8907195579627,
180,180,-4,4,1.15,,,,,0,0,0,0,0,15,15,34,,,,,,,,,,,,,,,,,,,,,,,320.87497450003866,None,320.87497450003866,None,320.3746360000223,None,j,0.4769926000153646,320.87497450003866,None,,,,,,,d,001,2021_Jul_01_1855,toilet,2021.1.3,99.8907195579627,
0,180,4,-4,1.03,,,,,0,0,0,0,0,16,16,25,,,,,,,,,,,,,,,,,,,,,,,322.3660184000619,None,322.3660184000619,None,321.86574090004433,None,f,0.5379008000018075,322.3660184000619,None,,,,,,,d,001,2021_Jul_01_1855,toilet,2021.1.3,99.8907195579627,
180,180,-4,4,0.85,,,,,0,0,0,0,0,17,17,28,,,,,,,,,,,,,,,,,,,,,,,323.9170314000221,None,323.9170314000221,None,323.41669720003847,None,f,0.4748253000434488,323.9170314000221,None,,,,,,,d,001,2021_Jul_01_1855,toilet,2021.1.3,99.8907195579627,
180,180,4,-4,1.15,,,,,0,0,0,0,0,18,18,41,,,,,,,,,,,,,,,,,,,,,,,325.39803369995207,None,325.39803369995207,None,324.89770410000347,None,f,0.4180468999547884,325.39803369995207,None,,,,,,,d,001,2021_Jul_01_1855,toilet,2021.1.3,99.8907195579627,
0,0,-4,4,0.94,,,,,0,0,0,0,0,19,19,1,,,,,,,,,,,,,,,,,,,,,,,326.8290314000333,None,326.8290314000333,None,326.328666800051,None,f,0.5230367999756709,326.8290314000333,None,,,,,,,d,001,2021_Jul_01_1855,toilet,2021.1.3,99.8907195579627,
180,0,-4,4,1.15,,,,,0,0,0,0,0,20,20,48,,,,,,,,,,,,,,,,,,,,,,,328.37005120003596,None,328.37005120003596,None,327.8697942000581,None,j,0.46993600006680936,328.37005120003596,None,,,,,,,d,001,2021_Jul_01_1855,toilet,2021.1.3,99.8907195579627,
180,0,-4,4,0.94,,,,,0,0,0,0,0,21,21,43,,,,,,,,,,,,,,,,,,,,,,,329.85114200005773,None,329.85114200005773,None,329.35075019998476,None,f,0.4767560000764206,329.85114200005773,None,,,,,,,d,001,2021_Jul_01_1855,toilet,2021.1.3,99.8907195579627,
0,180,4,-4,1.06,,,,,0,0,0,0,0,22,22,26,,,,,,,,,,,,,,,,,,,,,,,331.34206789999735,None,331.34206789999735,None,330.8417285999749,None,f,0.44180749997030944,331.34206789999735,None,,,,,,,d,001,2021_Jul_01_1855,toilet,2021.1.3,99.8907195579627,
0,180,4,-4,0.85,,,,,0,0,0,0,0,23,23,21,,,,,,,,,,,,,,,,,,,,,,,332.78302680002525,None,332.78302680002525,None,332.2827019999968,None,j,0.44083520001731813,332.78302680002525,None,,,,,,,d,001,2021_Jul_01_1855,toilet,2021.1.3,99.8907195579627,
0,0,4,-4,0.94,,,,,0,0,0,0,0,24,24,8,,,,,,,,,,,,,,,,,,,,,,,334.22401470004115,None,334.22401470004115,None,333.72367289999966,None,j,0.43986210005823523,334.22401470004115,None,,,,,,,d,001,2021_Jul_01_1855,toilet,2021.1.3,99.8907195579627,
180,180,-4,4,0.94,,,,,0,0,0,0,0,25,25,29,,,,,,,,,,,,,,,,,,,,,,,335.66508379997686,None,335.66508379997686,None,335.1646526999539,None,f,0.45495679997839034,335.66508379997686,None,,,,,,,d,001,2021_Jul_01_1855,toilet,2021.1.3,99.8907195579627,
180,180,-4,4,0.97,,,,,0,0,0,0,0,26,26,30,,,,,,,,,,,,,,,,,,,,,,,337.1360646999674,None,337.1360646999674,None,336.6356856999919,None,f,0.6158315000357106,337.1360646999674,None,,,,,,,d,001,2021_Jul_01_1855,toilet,2021.1.3,99.8907195579627,
0,0,-4,4,1.06,,,,,0,0,0,0,0,27,27,5,,,,,,,,,,,,,,,,,,,,,,,338.7570934999967,None,338.7570934999967,None,338.2567502000602,None,j,0.4828085999470204,338.7570934999967,None,,,,,,,d,001,2021_Jul_01_1855,toilet,2021.1.3,99.8907195579627,
180,0,-4,4,1.06,,,,,0,0,0,0,0,28,28,47,,,,,,,,,,,,,,,,,,,,,,,340.2481011999771,None,340.2481011999771,None,339.7477542000124,None,j,1.9679512999719009,340.2481011999771,None,,,,,,,d,001,2021_Jul_01_1855,toilet,2021.1.3,99.8907195579627,
180,0,4,-4,1.06,,,,,0,0,0,0,0,29,29,54,,,,,,,,,,,,,,,,,,,,,,,343.2302020000061,None,343.2302020000061,None,342.7297795000486,None,f,0.6017055000411347,343.2302020000061,None,,,,,,,d,001,2021_Jul_01_1855,toilet,2021.1.3,99.8907195579627,
180,180,4,-4,0.94,,,,,0,0,0,0,0,30,30,36,,,,,,,,,,,,,,,,,,,,,,,344.8312673000619,None,344.8312673000619,None,344.33094010001514,None,j,0.4727588000241667,344.8312673000619,None,,,,,,,d,001,2021_Jul_01_1855,toilet,2021.1.3,99.8907195579627,
0,180,-4,4,0.97,,,,,0,0,0,0,0,31,31,16,,,,,,,,,,,,,,,,,,,,,,,346.31220339995343,None,346.31220339995343,None,345.8118617000291,None,j,0.5596975999651477,346.31220339995343,None,,,,,,,d,001,2021_Jul_01_1855,toilet,2021.1.3,99.8907195579627,
0,0,-4,4,0.97,,,,,0,0,0,0,0,32,32,2,,,,,,,,,,,,,,,,,,,,,,,347.87325710000005,None,347.87325710000005,None,347.3729185999837,None,f,0.7427838000003248,347.87325710000005,None,,,,,,,d,001,2021_Jul_01_1855,toilet,2021.1.3,99.8907195579627,
0,180,-4,4,0.85,,,,,0,0,0,0,0,33,33,14,,,,,,,,,,,,,,,,,,,,,,,349.63445400004275,None,349.63445400004275,None,349.13413190003484,None,f,0.7255767000606284,349.63445400004275,None,,,,,,,d,001,2021_Jul_01_1855,toilet,2021.1.3,99.8907195579627,
180,180,4,-4,1.0,,,,,0,0,0,0,0,34,34,38,,,,,,,,,,,,,,,,,,,,,,,351.37571389996447,None,351.37571389996447,None,350.8752923000138,None,j,3.912232300033793,351.37571389996447,None,,,,,,,d,001,2021_Jul_01_1855,toilet,2021.1.3,99.8907195579627,
0,180,4,-4,0.97,,,,,0,0,0,0,0,35,35,23,,,,,,,,,,,,,,,,,,,,,,,356.2989669999806,None,356.2989669999806,None,355.79862520005554,None,f,3.0691916999639943,356.2989669999806,None,,,,,,,d,001,2021_Jul_01_1855,toilet,2021.1.3,99.8907195579627,
0,180,-4,4,1.06,,,,,0,0,0,0,0,36,36,19,,,,,,,,,,,,,,,,,,,,,,,360.38173500006087,None,360.38173500006087,None,359.88139220001176,None,j,0.5061084000626579,360.38173500006087,None,,,,,,,d,001,2021_Jul_01_1855,toilet,2021.1.3,99.8907195579627,
180,0,-4,4,0.97,,,,,0,0,0,0,0,37,37,44,,,,,,,,,,,,,,,,,,,,,,,361.89275190001354,None,361.89275190001354,None,361.3924161000177,None,f,0.5314019999932498,361.89275190001354,None,,,,,,,d,001,2021_Jul_01_1855,toilet,2021.1.3,99.8907195579627,
0,180,-4,4,1.0,,,,,0,0,0,0,0,38,38,17,,,,,,,,,,,,,,,,,,,,,,,363.43380540004,None,363.43380540004,None,362.9334665000206,None,j,1.0542169000254944,363.43380540004,None,,,,,,,d,001,2021_Jul_01_1855,toilet,2021.1.3,99.8907195579627,
180,180,4,-4,1.03,,,,,0,0,0,0,0,39,39,39,,,,,,,,,,,,,,,,,,,,,,,365.49527790001594,None,365.49527790001594,None,364.9948558000615,None,f,1.088626699987799,365.49527790001594,None,,,,,,,d,001,2021_Jul_01_1855,toilet,2021.1.3,99.8907195579627,
180,180,4,-4,0.97,,,,,0,0,0,0,0,40,40,37,,,,,,,,,,,,,,,,,,,,,,,367.59662089997437,None,367.59662089997437,None,367.0963160999818,None,j,0.8592539000092074,367.59662089997437,None,,,,,,,d,001,2021_Jul_01_1855,toilet,2021.1.3,99.8907195579627,
0,0,-4,4,1.0,,,,,0,0,0,0,0,41,41,3,,,,,,,,,,,,,,,,,,,,,,,369.4578729000641,None,369.4578729000641,None,368.95753999997396,None,f,0.5501663000322878,369.4578729000641,None,,,,,,,d,001,2021_Jul_01_1855,toilet,2021.1.3,99.8907195579627,
180,180,4,-4,0.85,,,,,0,0,0,0,0,42,42,35,,,,,,,,,,,,,,,,,,,,,,,371.0189346000552,None,371.0189346000552,None,370.51862009998877,None,j,0.5731160000432283,371.0189346000552,None,,,,,,,d,001,2021_Jul_01_1855,toilet,2021.1.3,99.8907195579627,
0,0,4,-4,1.03,,,,,0,0,0,0,0,43,43,11,,,,,,,,,,,,,,,,,,,,,,,372.6100166999968,None,372.6100166999968,None,372.1096823000116,None,f,0.6939663999946788,372.6100166999968,None,,,,,,,d,001,2021_Jul_01_1855,toilet,2021.1.3,99.8907195579627,
0,180,4,-4,1.0,,,,,0,0,0,0,0,44,44,24,,,,,,,,,,,,,,,,,,,,,,,374.3211736000376,None,374.3211736000376,None,373.82091799995396,None,f,0.5986930000362918,374.3211736000376,None,,,,,,,d,001,2021_Jul_01_1855,toilet,2021.1.3,99.8907195579627,
0,0,4,-4,1.15,,,,,0,0,0,0,0,45,45,13,,,,,,,,,,,,,,,,,,,,,,,375.92226060002577,None,375.92226060002577,None,375.4219192999881,None,f,0.4856007000198588,375.92226060002577,None,,,,,,,d,001,2021_Jul_01_1855,toilet,2021.1.3,99.8907195579627,
180,180,-4,4,1.0,,,,,0,0,0,0,0,46,46,31,,,,,,,,,,,,,,,,,,,,,,,377.41327540006023,None,377.41327540006023,None,376.91292919998523,None,j,0.5147287000436336,377.41327540006023,None,,,,,,,d,001,2021_Jul_01_1855,toilet,2021.1.3,99.8907195579627,
0,0,-4,4,1.15,,,,,0,0,0,0,0,47,47,6,,,,,,,,,,,,,,,,,,,,,,,378.94430229999125,None,378.94430229999125,None,378.4439813999925,None,j,0.6795183999929577,378.94430229999125,None,,,,,,,d,001,2021_Jul_01_1855,toilet,2021.1.3,99.8907195579627,
180,180,-4,4,1.03,,,,,0,0,0,0,0,48,48,32,,,,,,,,,,,,,,,,,,,,,,,380.6255295999581,None,380.6255295999581,None,380.1251931999577,None,j,2.166279900004156,380.6255295999581,None,,,,,,,d,001,2021_Jul_01_1855,toilet,2021.1.3,99.8907195579627,
180,0,-4,4,1.0,,,,,0,0,0,0,0,49,49,45,,,,,,,,,,,,,,,,,,,,,,,383.7975976000307,None,383.7975976000307,None,383.29725289996713,None,f,1.778218200081028,383.7975976000307,None,,,,,,,d,001,2021_Jul_01_1855,toilet,2021.1.3,99.8907195579627,
0,180,4,-4,1.15,,,,,0,0,0,0,0,50,50,27,,,,,,,,,,,,,,,,,,,,,,,386.57947700005025,None,386.57947700005025,None,386.0791356000118,None,f,0.4684392000781372,386.57947700005025,None,,,,,,,d,001,2021_Jul_01_1855,toilet,2021.1.3,99.8907195579627,
0,0,-4,4,1.03,,,,,0,0,0,0,0,51,51,4,,,,,,,,,,,,,,,,,,,,,,,388.0505598000018,None,388.0505598000018,None,387.550140599953,None,j,0.6613534999778494,388.0505598000018,None,,,,,,,d,001,2021_Jul_01_1855,toilet,2021.1.3,99.8907195579627,
0,0,4,-4,1.06,,,,,0,0,0,0,0,52,52,12,,,,,,,,,,,,,,,,,,,,,,,389.72160409996286,None,389.72160409996286,None,389.2212873999961,None,f,0.8142427999991924,389.72160409996286,None,,,,,,,d,001,2021_Jul_01_1855,toilet,2021.1.3,99.8907195579627,
0,180,-4,4,1.15,,,,,0,0,0,0,0,53,53,20,,,,,,,,,,,,,,,,,,,,,,,391.54284240002744,None,391.54284240002744,None,391.0425025000004,None,j,0.46499270002823323,391.54284240002744,None,,,,,,,d,001,2021_Jul_01_1855,toilet,2021.1.3,99.8907195579627,
180,0,4,-4,1.15,,,,,0,0,0,0,0,54,54,55,,,,,,,,,,,,,,,,,,,,,,,393.01383680000436,None,393.01383680000436,None,392.5134968999773,None,f,0.4821310999104753,393.01383680000436,None,,,,,,,d,001,2021_Jul_01_1855,toilet,2021.1.3,99.8907195579627,
180,0,4,-4,0.85,,,,,0,0,0,0,0,55,55,49,,,,,,,,,,,,,,,,,,,,,,,394.52486170001794,None,394.52486170001794,None,394.0245184999658,None,j,0.39495200000237674,394.52486170001794,None,,,,,,,d,001,2021_Jul_01_1855,toilet,2021.1.3,99.8907195579627,
0,0,-4,4,0.94,,,,,0,0,0,0,1,0,56,1,,,,,,,,,,,,,,,,,,,,,,,395.92585280002095,None,395.92585280002095,None,395.4255632000277,None,f,0.49799539998639375,395.92585280002095,None,,,,,,,d,001,2021_Jul_01_1855,toilet,2021.1.3,99.8907195579627,
180,0,-4,4,0.94,,,,,0,0,0,0,1,1,57,43,,,,,,,,,,,,,,,,,,,,,,,397.436854199972,None,397.436854199972,None,396.9364917000057,None,f,0.4909084999235347,397.436854199972,None,,,,,,,d,001,2021_Jul_01_1855,toilet,2021.1.3,99.8907195579627,
0,0,4,-4,1.06,,,,,0,0,0,0,1,2,58,12,,,,,,,,,,,,,,,,,,,,,,,398.92783880000934,None,398.92783880000934,None,398.4275036000181,None,f,0.6641831001034006,398.92783880000934,None,,,,,,,d,001,2021_Jul_01_1855,toilet,2021.1.3,99.8907195579627,
0,0,4,-4,1.0,,,,,0,0,0,0,1,3,59,10,,,,,,,,,,,,,,,,,,,,,,,400.6089791000122,None,400.6089791000122,None,400.10864630003925,None,j,0.6788226999342442,400.6089791000122,None,,,,,,,d,001,2021_Jul_01_1855,toilet,2021.1.3,99.8907195579627,
180,180,-4,4,1.03,,,,,0,0,0,0,1,4,60,32,,,,,,,,,,,,,,,,,,,,,,,402.2902029999532,None,402.2902029999532,None,401.7897844000254,None,j,0.997631200007163,402.2902029999532,None,,,,,,,d,001,2021_Jul_01_1855,toilet,2021.1.3,99.8907195579627,
180,0,-4,4,1.15,,,,,0,0,0,0,1,5,61,48,,,,,,,,,,,,,,,,,,,,,,,404.3014827000443,None,404.3014827000443,None,403.80117910006084,None,j,0.4742884000297636,404.3014827000443,None,,,,,,,d,001,2021_Jul_01_1855,toilet,2021.1.3,99.8907195579627,
0,180,4,-4,1.15,,,,,0,0,0,0,1,6,62,27,,,,,,,,,,,,,,,,,,,,,,,405.7824835999636,None,405.7824835999636,None,405.2821434000507,None,f,0.4493304999778047,405.7824835999636,None,,,,,,,d,001,2021_Jul_01_1855,toilet,2021.1.3,99.8907195579627,
180,0,4,-4,0.85,,,,,0,0,0,0,1,7,63,49,,,,,,,,,,,,,,,,,,,,,,,407.2334678999614,None,407.2334678999614,None,406.733127500047,None,j,0.37446079996880144,407.2334678999614,None,,,,,,,d,001,2021_Jul_01_1855,toilet,2021.1.3,99.8907195579627,
0,0,-4,4,1.03,,,,,0,0,0,0,1,8,64,4,,,,,,,,,,,,,,,,,,,,,,,408.6244125000667,None,408.6244125000667,None,408.1240735000465,None,j,0.5194951000157744,408.6244125000667,None,,,,,,,d,001,2021_Jul_01_1855,toilet,2021.1.3,99.8907195579627,
180,180,-4,4,0.97,,,,,0,0,0,0,1,9,65,30,,,,,,,,,,,,,,,,,,,,,,,410.1554683999857,None,410.1554683999857,None,409.65510740003083,None,f,0.5403644999023527,410.1554683999857,None,,,,,,,d,001,2021_Jul_01_1855,toilet,2021.1.3,99.8907195579627,
0,0,-4,4,0.97,,,,,0,0,0,0,1,10,66,2,,,,,,,,,,,,,,,,,,,,,,,411.69648879999295,None,411.69648879999295,None,411.1961922000628,None,f,0.4873474999330938,411.69648879999295,None,,,,,,,d,001,2021_Jul_01_1855,toilet,2021.1.3,99.8907195579627,
0,180,-4,4,1.06,,,,,0,0,0,0,1,11,67,19,,,,,,,,,,,,,,,,,,,,,,,413.18751820002217,None,413.18751820002217,None,412.68717799999285,None,j,0.436448400025256,413.18751820002217,None,,,,,,,d,001,2021_Jul_01_1855,toilet,2021.1.3,99.8907195579627,
180,180,-4,4,0.94,,,,,0,0,0,0,1,12,68,29,,,,,,,,,,,,,,,,,,,,,,,414.6484966999851,None,414.6484966999851,None,414.1481801000191,None,f,0.47948739991988987,414.6484966999851,None,,,,,,,d,001,2021_Jul_01_1855,toilet,2021.1.3,99.8907195579627,
0,180,4,-4,0.97,,,,,0,0,0,0,1,13,69,23,,,,,,,,,,,,,,,,,,,,,,,416.1394970000256,None,416.1394970000256,None,415.63915920001455,None,f,1.3245373000390828,416.1394970000256,None,,,,,,,d,001,2021_Jul_01_1855,toilet,2021.1.3,99.8907195579627,
180,180,4,-4,1.0,,,,,0,0,0,0,1,14,70,38,,,,,,,,,,,,,,,,,,,,,,,418.4810681999661,None,418.4810681999661,None,417.9807891000528,None,j,0.5028380999574438,418.4810681999661,None,,,,,,,d,001,2021_Jul_01_1855,toilet,2021.1.3,99.8907195579627,
180,0,-4,4,1.06,,,,,0,0,0,0,1,15,71,47,,,,,,,,,,,,,,,,,,,,,,,419.9921156000346,None,419.9921156000346,None,419.49177179997787,None,f,0.47967780008912086,419.9921156000346,None,,,,,,,d,001,2021_Jul_01_1855,toilet,2021.1.3,99.8907195579627,
180,0,4,-4,0.97,,,,,0,0,0,0,1,16,72,51,,,,,,,,,,,,,,,,,,,,,,,421.47311310004443,None,421.47311310004443,None,420.97277130000293,None,j,0.4868700000224635,421.47311310004443,None,,,,,,,d,001,2021_Jul_01_1855,toilet,2021.1.3,99.8907195579627,
180,180,4,-4,0.85,,,,,0,0,0,0,1,17,73,35,,,,,,,,,,,,,,,,,,,,,,,422.9841373000527,None,422.9841373000527,None,422.4837975000264,None,j,0.44773240003269166,422.9841373000527,None,,,,,,,d,001,2021_Jul_01_1855,toilet,2021.1.3,99.8907195579627,
0,0,-4,4,1.15,,,,,0,0,0,0,1,18,74,6,,,,,,,,,,,,,,,,,,,,,,,424.4451311000157,None,424.4451311000157,None,423.94487590005156,None,j,0.426750999991782,424.4451311000157,None,,,,,,,d,001,2021_Jul_01_1855,toilet,2021.1.3,99.8907195579627,
180,180,-4,4,0.85,,,,,0,0,0,0,1,19,75,28,,,,,,,,,,,,,,,,,,,,,,,425.886123699951,None,425.886123699951,None,425.38584230002016,None,f,0.5056807999499142,425.886123699951,None,,,,,,,d,001,2021_Jul_01_1855,toilet,2021.1.3,99.8907195579627,
180,0,4,-4,1.03,,,,,0,0,0,0,1,20,76,53,,,,,,,,,,,,,,,,,,,,,,,427.3971283000428,None,427.3971283000428,None,426.8967854999937,None,f,0.6908309999853373,427.3971283000428,None,,,,,,,d,001,2021_Jul_01_1855,toilet,2021.1.3,99.8907195579627,
0,180,-4,4,0.94,,,,,0,0,0,0,1,21,77,15,,,,,,,,,,,,,,,,,,,,,,,429.08827439998277,None,429.08827439998277,None,428.58792850002646,None,f,0.9196519999532029,429.08827439998277,None,,,,,,,d,001,2021_Jul_01_1855,toilet,2021.1.3,99.8907195579627,
0,0,-4,4,0.85,,,,,0,0,0,0,1,22,78,0,,,,,,,,,,,,,,,,,,,,,,,431.0296082999557,None,431.0296082999557,None,430.5292498000199,None,f,0.45035299996379763,431.0296082999557,None,,,,,,,d,001,2021_Jul_01_1855,toilet,2021.1.3,99.8907195579627,
180,0,4,-4,1.06,,,,,0,0,0,0,1,23,79,54,,,,,,,,,,,,,,,,,,,,,,,432.49057699996047,None,432.49057699996047,None,431.99031829996966,None,j,0.6213234999449924,432.49057699996047,None,,,,,,,d,001,2021_Jul_01_1855,toilet,2021.1.3,99.8907195579627,
0,180,4,-4,1.0,,,,,0,0,0,0,1,24,80,24,,,,,,,,,,,,,,,,,,,,,,,434.1117119999835,None,434.1117119999835,None,433.6113341000164,None,f,0.696098200045526,434.1117119999835,None,,,,,,,d,001,2021_Jul_01_1855,toilet,2021.1.3,99.8907195579627,
180,180,-4,4,1.15,,,,,0,0,0,0,1,25,81,34,,,,,,,,,,,,,,,,,,,,,,,435.81282770005055,None,435.81282770005055,None,435.3124850000022,None,j,0.5630863000405952,435.81282770005055,None,,,,,,,d,001,2021_Jul_01_1855,toilet,2021.1.3,99.8907195579627,
180,0,-4,4,1.0,,,,,0,0,0,0,1,26,82,45,,,,,,,,,,,,,,,,,,,,,,,437.4038931999821,None,437.4038931999821,None,436.90356270002667,None,f,0.41200100001879036,437.4038931999821,None,,,,,,,d,001,2021_Jul_01_1855,toilet,2021.1.3,99.8907195579627,
0,0,4,-4,0.94,,,,,0,0,0,0,1,27,83,8,,,,,,,,,,,,,,,,,,,,,,,438.83496819995344,None,438.83496819995344,None,438.3345334000187,None,j,0.468821500078775,438.83496819995344,None,,,,,,,d,001,2021_Jul_01_1855,toilet,2021.1.3,99.8907195579627,
0,180,4,-4,1.06,,,,,0,0,0,0,1,28,84,26,,,,,,,,,,,,,,,,,,,,,,,440.30596599995624,None,440.30596599995624,None,439.80554059997667,None,f,0.4537889000494033,440.30596599995624,None,,,,,,,d,001,2021_Jul_01_1855,toilet,2021.1.3,99.8907195579627,
0,0,-4,4,1.0,,,,,0,0,0,0,1,29,85,3,,,,,,,,,,,,,,,,,,,,,,,441.7668654000154,None,441.7668654000154,None,441.2665229999693,None,j,0.3851424000458792,441.7668654000154,None,,,,,,,d,001,2021_Jul_01_1855,toilet,2021.1.3,99.8907195579627,
0,180,4,-4,0.94,,,,,0,0,0,0,1,30,86,22,,,,,,,,,,,,,,,,,,,,,,,443.1578087999951,None,443.1578087999951,None,442.6574619000312,None,f,0.41815089993178844,443.1578087999951,None,,,,,,,d,001,2021_Jul_01_1855,toilet,2021.1.3,99.8907195579627,
0,180,4,-4,0.85,,,,,0,0,0,0,1,31,87,21,,,,,,,,,,,,,,,,,,,,,,,444.5887688000221,None,444.5887688000221,None,444.08842970000114,None,j,0.3951763000804931,444.5887688000221,None,,,,,,,d,001,2021_Jul_01_1855,toilet,2021.1.3,99.8907195579627,
180,0,-4,4,0.85,,,,,0,0,0,0,1,32,88,42,,,,,,,,,,,,,,,,,,,,,,,445.9997405000031,None,445.9997405000031,None,445.499387799995,None,f,0.34413510002195835,445.9997405000031,None,,,,,,,d,001,2021_Jul_01_1855,toilet,2021.1.3,99.8907195579627,
0,180,-4,4,1.0,,,,,0,0,0,0,1,33,89,17,,,,,,,,,,,,,,,,,,,,,,,447.3506453000009,None,447.3506453000009,None,446.8503976999782,None,j,0.3693030000431463,447.3506453000009,None,,,,,,,d,001,2021_Jul_01_1855,toilet,2021.1.3,99.8907195579627,
0,180,4,-4,1.03,,,,,0,0,0,0,1,34,90,25,,,,,,,,,,,,,,,,,,,,,,,448.73158110002987,None,448.73158110002987,None,448.2312747000251,None,f,0.38021249999292195,448.73158110002987,None,,,,,,,d,001,2021_Jul_01_1855,toilet,2021.1.3,99.8907195579627,
0,180,-4,4,0.85,,,,,0,0,0,0,1,35,91,14,,,,,,,,,,,,,,,,,,,,,,,450.11250879999716,None,450.11250879999716,None,449.61217269999906,None,f,0.4394507999531925,450.11250879999716,None,,,,,,,d,001,2021_Jul_01_1855,toilet,2021.1.3,99.8907195579627,
180,180,4,-4,0.97,,,,,0,0,0,0,1,36,92,37,,,,,,,,,,,,,,,,,,,,,,,451.56349099997897,None,451.56349099997897,None,451.0631558999885,None,j,0.46041109994985163,451.56349099997897,None,,,,,,,d,001,2021_Jul_01_1855,toilet,2021.1.3,99.8907195579627,
180,0,-4,4,0.97,,,,,0,0,0,0,1,37,93,44,,,,,,,,,,,,,,,,,,,,,,,453.0344887999818,None,453.0344887999818,None,452.53415279998444,None,f,0.38146289996802807,453.0344887999818,None,,,,,,,d,001,2021_Jul_01_1855,toilet,2021.1.3,99.8907195579627,
180,180,4,-4,1.15,,,,,0,0,0,0,1,38,94,41,,,,,,,,,,,,,,,,,,,,,,,454.43552060006186,None,454.43552060006186,None,453.9351182000246,None,f,0.4362061999272555,454.43552060006186,None,,,,,,,d,001,2021_Jul_01_1855,toilet,2021.1.3,99.8907195579627,
0,180,-4,4,1.03,,,,,0,0,0,0,1,39,95,18,,,,,,,,,,,,,,,,,,,,,,,455.87641919997986,None,455.87641919997986,None,455.3760910000419,None,j,0.46735239995177835,455.87641919997986,None,,,,,,,d,001,2021_Jul_01_1855,toilet,2021.1.3,99.8907195579627,
180,0,-4,4,1.03,,,,,0,0,0,0,1,40,96,46,,,,,,,,,,,,,,,,,,,,,,,457.34741709998343,None,457.34741709998343,None,456.84707240003627,None,f,0.420465899980627,457.34741709998343,None,,,,,,,d,001,2021_Jul_01_1855,toilet,2021.1.3,99.8907195579627,
180,0,4,-4,1.15,,,,,0,0,0,0,1,41,97,55,,,,,,,,,,,,,,,,,,,,,,,458.7683751999866,None,458.7683751999866,None,458.2780276000267,None,f,0.47148319997359067,458.7683751999866,None,,,,,,,d,001,2021_Jul_01_1855,toilet,2021.1.3,99.8907195579627,
0,180,-4,4,1.15,,,,,0,0,0,0,1,42,98,20,,,,,,,,,,,,,,,,,,,,,,,460.2493778000353,None,460.2493778000353,None,459.7490388000151,None,j,0.41448809998109937,460.2493778000353,None,,,,,,,d,001,2021_Jul_01_1855,toilet,2021.1.3,99.8907195579627,
180,180,4,-4,1.03,,,,,0,0,0,0,1,43,99,39,,,,,,,,,,,,,,,,,,,,,,,461.6704351999797,None,461.6704351999797,None,461.170037999982,None,f,0.46529950003605336,461.6704351999797,None,,,,,,,d,001,2021_Jul_01_1855,toilet,2021.1.3,99.8907195579627,
180,0,4,-4,1.0,,,,,0,0,0,0,1,44,100,52,,,,,,,,,,,,,,,,,,,,,,,463.141333400039,None,463.141333400039,None,462.6410365999909,None,j,0.7064330000430346,463.141333400039,None,,,,,,,d,001,2021_Jul_01_1855,toilet,2021.1.3,99.8907195579627,
180,0,4,-4,0.94,,,,,0,0,0,0,1,45,101,50,,,,,,,,,,,,,,,,,,,,,,,464.85249790002126,None,464.85249790002126,None,464.3521614000201,None,j,0.48332110000774264,464.85249790002126,None,,,,,,,d,001,2021_Jul_01_1855,toilet,2021.1.3,99.8907195579627,
180,180,4,-4,0.94,,,,,0,0,0,0,1,46,102,36,,,,,,,,,,,,,,,,,,,,,,,466.34350770001765,None,466.34350770001765,None,465.8431746000424,None,j,1.6162883000215515,466.34350770001765,None,,,,,,,d,001,2021_Jul_01_1855,toilet,2021.1.3,99.8907195579627,
180,180,4,-4,1.06,,,,,0,0,0,0,1,47,103,40,,,,,,,,,,,,,,,,,,,,,,,468.96536749997176,None,468.96536749997176,None,468.46504100004677,None,f,0.4663865000475198,468.96536749997176,None,,,,,,,d,001,2021_Jul_01_1855,toilet,2021.1.3,99.8907195579627,
0,0,4,-4,1.03,,,,,0,0,0,0,1,48,104,11,,,,,,,,,,,,,,,,,,,,,,,470.43629500002135,None,470.43629500002135,None,469.93601369997486,None,f,0.5794534999877214,470.43629500002135,None,,,,,,,d,001,2021_Jul_01_1855,toilet,2021.1.3,99.8907195579627,
180,180,-4,4,1.06,,,,,0,0,0,0,1,49,105,33,,,,,,,,,,,,,,,,,,,,,,,472.0173477999633,None,472.0173477999633,None,471.51700360001996,None,j,0.5664125999901444,472.0173477999633,None,,,,,,,d,001,2021_Jul_01_1855,toilet,2021.1.3,99.8907195579627,
0,180,-4,4,0.97,,,,,0,0,0,0,1,50,106,16,,,,,,,,,,,,,,,,,,,,,,,473.58842419995926,None,473.58842419995926,None,473.088074499974,None,f,1.9073837000178173,473.58842419995926,None,,,,,,,d,001,2021_Jul_01_1855,toilet,2021.1.3,99.8907195579627,
180,180,-4,4,1.0,,,,,0,0,0,0,1,51,107,31,,,,,,,,,,,,,,,,,,,,,,,476.50046640005894,None,476.50046640005894,None,476.00013309996575,None,f,1.9712740000104532,476.50046640005894,None,,,,,,,d,001,2021_Jul_01_1855,toilet,2021.1.3,99.8907195579627,
0,0,-4,4,1.06,,,,,0,0,0,0,1,52,108,5,,,,,,,,,,,,,,,,,,,,,,,479.47239480004646,None,479.47239480004646,None,478.9720558000263,None,j,0.5513899000361562,479.47239480004646,None,,,,,,,d,001,2021_Jul_01_1855,toilet,2021.1.3,99.8907195579627,
0,0,4,-4,1.15,,,,,0,0,0,0,1,53,109,13,,,,,,,,,,,,,,,,,,,,,,,481.02344899997115,None,481.02344899997115,None,480.5231082000537,None,f,0.6965140999527648,481.02344899997115,None,,,,,,,d,001,2021_Jul_01_1855,toilet,2021.1.3,99.8907195579627,
0,0,4,-4,0.85,,,,,0,0,0,0,1,54,110,7,,,,,,,,,,,,,,,,,,,,,,,482.7446127999574,None,482.7446127999574,None,482.24427430005744,None,j,0.49528739997185767,482.7446127999574,None,,,,,,,d,001,2021_Jul_01_1855,toilet,2021.1.3,99.8907195579627,
0,0,4,-4,0.97,,,,,0,0,0,0,1,55,111,9,,,,,,,,,,,,,,,,,,,,,,,484.25566320004873,None,484.25566320004873,None,483.75539950001985,None,j,0.7600514000514522,484.25566320004873,None,,,,,,,d,001,2021_Jul_01_1855,toilet,2021.1.3,99.8907195579627,
,,,,,,,,,0,0,0,0,,,,,,,,,,,,,,,,,,,,,,,,,,,,,,,,,,,,,485.0361999999732,None,space,13.531702799955383,485.0361999999732,None,d,001,2021_Jul_01_1855,toilet,2021.1.3,99.8907195579627,
0,180,-4,4,1.03,,,,,1,0,1,0,0,0,0,18,,,,,,,,,,,,,,,,,498.5953951999545,None,space,4.596392499981448,498.5953951999545,None,504.2091523000272,None,504.2091523000272,None,503.70881039998494,None,j,0.7426790000172332,504.2091523000272,None,,,,,,,d,001,2021_Jul_01_1855,toilet,2021.1.3,99.8907195579627,
180,180,-4,4,1.15,,,,,1,0,1,0,0,1,1,34,,,,,,,,,,,,,,,,,,,,,,,505.97042799997143,None,505.97042799997143,None,505.47000700002536,None,j,0.4854461000068113,505.97042799997143,None,,,,,,,d,001,2021_Jul_01_1855,toilet,2021.1.3,99.8907195579627,
0,180,4,-4,0.94,,,,,1,0,1,0,0,2,2,22,,,,,,,,,,,,,,,,,,,,,,,507.4713627999881,None,507.4713627999881,None,506.97102279996034,None,f,0.9523340999148786,507.4713627999881,None,,,,,,,d,001,2021_Jul_01_1855,toilet,2021.1.3,99.8907195579627,
180,0,-4,4,1.06,,,,,1,0,1,0,0,3,3,47,,,,,,,,,,,,,,,,,,,,,,,509.4327096999623,None,509.4327096999623,None,508.9323548000539,None,f,0.5272203999338672,509.4327096999623,None,,,,,,,d,001,2021_Jul_01_1855,toilet,2021.1.3,99.8907195579627,
180,0,-4,4,0.94,,,,,1,0,1,0,0,4,4,43,,,,,,,,,,,,,,,,,,,,,,,510.9637268000515,None,510.9637268000515,None,510.4633885000367,None,f,0.484180000028573,510.9637268000515,None,,,,,,,d,001,2021_Jul_01_1855,toilet,2021.1.3,99.8907195579627,
180,180,-4,4,0.85,,,,,1,0,1,0,0,5,5,28,,,,,,,,,,,,,,,,,,,,,,,512.4747531999601,None,512.4747531999601,None,511.97440850001294,None,f,0.46115750004537404,512.4747531999601,None,,,,,,,d,001,2021_Jul_01_1855,toilet,2021.1.3,99.8907195579627,
180,180,4,-4,1.15,,,,,1,0,1,0,0,6,6,41,,,,,,,,,,,,,,,,,,,,,,,513.9457949000644,None,513.9457949000644,None,513.4454069000203,None,f,0.4621638000244275,513.9457949000644,None,,,,,,,d,001,2021_Jul_01_1855,toilet,2021.1.3,99.8907195579627,
0,180,-4,4,1.15,,,,,1,0,1,0,0,7,7,20,,,,,,,,,,,,,,,,,,,,,,,515.426774200052,None,515.426774200052,None,514.9264096999541,None,j,0.46898430003784597,515.426774200052,None,,,,,,,d,001,2021_Jul_01_1855,toilet,2021.1.3,99.8907195579627,
180,180,4,-4,1.0,,,,,1,0,1,0,0,8,8,38,,,,,,,,,,,,,,,,,,,,,,,516.8977437999565,None,516.8977437999565,None,516.397414600011,None,f,0.4861350000137463,516.8977437999565,None,,,,,,,d,001,2021_Jul_01_1855,toilet,2021.1.3,99.8907195579627,
180,180,4,-4,0.97,,,,,1,0,1,0,0,9,9,37,,,,,,,,,,,,,,,,,,,,,,,518.4087714999914,None,518.4087714999914,None,517.9084524000064,None,f,0.5431295000016689,518.4087714999914,None,,,,,,,d,001,2021_Jul_01_1855,toilet,2021.1.3,99.8907195579627,
180,0,4,-4,1.0,,,,,1,0,1,0,0,10,10,52,,,,,,,,,,,,,,,,,,,,,,,519.9698307999643,None,519.9698307999643,None,519.4694904000498,None,j,0.5020461999811232,519.9698307999643,None,,,,,,,d,001,2021_Jul_01_1855,toilet,2021.1.3,99.8907195579627,
0,0,-4,4,1.15,,,,,1,0,1,0,0,11,11,6,,,,,,,,,,,,,,,,,,,,,,,521.4909542000387,None,521.4909542000387,None,520.9905256000347,None,j,0.38882449991069734,521.4909542000387,None,,,,,,,d,001,2021_Jul_01_1855,toilet,2021.1.3,99.8907195579627,
180,0,4,-4,1.03,,,,,1,0,1,0,0,12,12,53,,,,,,,,,,,,,,,,,,,,,,,522.881787899998,None,522.881787899998,None,522.3914703000337,None,j,0.5498891999013722,522.881787899998,None,,,,,,,d,001,2021_Jul_01_1855,toilet,2021.1.3,99.8907195579627,
0,0,-4,4,1.0,,,,,1,0,1,0,0,13,13,3,,,,,,,,,,,,,,,,,,,,,,,524.4328528000042,None,524.4328528000042,None,523.9325218000449,None,f,0.5670642999466509,524.4328528000042,None,,,,,,,d,001,2021_Jul_01_1855,toilet,2021.1.3,99.8907195579627,
180,0,4,-4,0.85,,,,,1,0,1,0,0,14,14,49,,,,,,,,,,,,,,,,,,,,,,,526.023931600037,None,526.023931600037,None,525.5235933000222,None,j,0.41602380003314465,526.023931600037,None,,,,,,,d,001,2021_Jul_01_1855,toilet,2021.1.3,99.8907195579627,
0,0,4,-4,0.85,,,,,1,0,1,0,0,15,15,7,,,,,,,,,,,,,,,,,,,,,,,527.4649098999798,None,527.4649098999798,None,526.9645770000061,None,j,0.3828110999893397,527.4649098999798,None,,,,,,,d,001,2021_Jul_01_1855,toilet,2021.1.3,99.8907195579627,
180,180,-4,4,1.03,,,,,1,0,1,0,0,16,16,32,,,,,,,,,,,,,,,,,,,,,,,528.8559498999966,None,528.8559498999966,None,528.3555246000178,None,f,0.4478477999800816,528.8559498999966,None,,,,,,,d,001,2021_Jul_01_1855,toilet,2021.1.3,99.8907195579627,
180,0,4,-4,0.97,,,,,1,0,1,0,0,17,17,51,,,,,,,,,,,,,,,,,,,,,,,530.3068211000646,None,530.3068211000646,None,529.8064875999698,None,j,0.516857499955222,530.3068211000646,None,,,,,,,d,001,2021_Jul_01_1855,toilet,2021.1.3,99.8907195579627,
180,180,-4,4,1.06,,,,,1,0,1,0,0,18,18,33,,,,,,,,,,,,,,,,,,,,,,,531.8278606999665,None,531.8278606999665,None,531.3275255999761,None,f,0.5480036999797449,531.8278606999665,None,,,,,,,d,001,2021_Jul_01_1855,toilet,2021.1.3,99.8907195579627,
180,180,-4,4,0.97,,,,,1,0,1,0,0,19,19,30,,,,,,,,,,,,,,,,,,,,,,,533.3889222999569,None,533.3889222999569,None,532.888581700041,None,f,0.4428537000203505,533.3889222999569,None,,,,,,,d,001,2021_Jul_01_1855,toilet,2021.1.3,99.8907195579627,
0,180,4,-4,0.97,,,,,1,0,1,0,0,20,20,23,,,,,,,,,,,,,,,,,,,,,,,534.839937999961,None,534.839937999961,None,534.3395606999984,None,f,0.5437610999215394,534.839937999961,None,,,,,,,d,001,2021_Jul_01_1855,toilet,2021.1.3,99.8907195579627,
0,0,4,-4,1.06,,,,,1,0,1,0,0,21,21,12,,,,,,,,,,,,,,,,,,,,,,,536.3909731999738,None,536.3909731999738,None,535.8906915000407,None,f,0.544723599916324,536.3909731999738,None,,,,,,,d,001,2021_Jul_01_1855,toilet,2021.1.3,99.8907195579627,
180,0,-4,4,1.0,,,,,1,0,1,0,0,22,22,45,,,,,,,,,,,,,,,,,,,,,,,537.9420037999516,None,537.9420037999516,None,537.4416643000441,None,f,0.5296931000193581,537.9420037999516,None,,,,,,,d,001,2021_Jul_01_1855,toilet,2021.1.3,99.8907195579627,
180,0,-4,4,1.03,,,,,1,0,1,0,0,23,23,46,,,,,,,,,,,,,,,,,,,,,,,539.4730495000258,None,539.4730495000258,None,538.9726997000398,None,f,0.5027018000837415,539.4730495000258,None,,,,,,,d,001,2021_Jul_01_1855,toilet,2021.1.3,99.8907195579627,
180,0,4,-4,1.06,,,,,1,0,1,0,0,24,24,54,,,,,,,,,,,,,,,,,,,,,,,540.9840627999511,None,540.9840627999511,None,540.4837304999819,None,f,0.5757784000597894,540.9840627999511,None,,,,,,,d,001,2021_Jul_01_1855,toilet,2021.1.3,99.8907195579627,
0,180,-4,4,0.85,,,,,1,0,1,0,0,25,25,14,,,,,,,,,,,,,,,,,,,,,,,542.5851511000656,None,542.5851511000656,None,542.0848480999703,None,f,0.49473729997407645,542.5851511000656,None,,,,,,,d,001,2021_Jul_01_1855,toilet,2021.1.3,99.8907195579627,
180,180,-4,4,1.0,,,,,1,0,1,0,0,26,26,31,,,,,,,,,,,,,,,,,,,,,,,544.096211600001,None,544.096211600001,None,543.5958487000316,None,f,0.5194111000746489,544.096211600001,None,,,,,,,d,001,2021_Jul_01_1855,toilet,2021.1.3,99.8907195579627,
180,0,-4,4,0.85,,,,,1,0,1,0,0,27,27,42,,,,,,,,,,,,,,,,,,,,,,,545.6172021999955,None,545.6172021999955,None,545.1168599000666,None,f,0.5025717999087647,545.6172021999955,None,,,,,,,d,001,2021_Jul_01_1855,toilet,2021.1.3,99.8907195579627,
0,180,4,-4,1.15,,,,,1,0,1,0,0,28,28,27,,,,,,,,,,,,,,,,,,,,,,,547.1282320000464,None,547.1282320000464,None,546.6278841999592,None,f,0.4636626000283286,547.1282320000464,None,,,,,,,d,001,2021_Jul_01_1855,toilet,2021.1.3,99.8907195579627,
0,180,-4,4,1.06,,,,,1,0,1,0,0,29,29,19,,,,,,,,,,,,,,,,,,,,,,,548.5992238000035,None,548.5992238000035,None,548.0988818999613,None,j,0.432480699964799,548.5992238000035,None,,,,,,,d,001,2021_Jul_01_1855,toilet,2021.1.3,99.8907195579627,
0,0,-4,4,0.85,,,,,1,0,1,0,0,30,30,0,,,,,,,,,,,,,,,,,,,,,,,550.0402726000175,None,550.0402726000175,None,549.5398559999885,None,f,0.43179539998527616,550.0402726000175,None,,,,,,,d,001,2021_Jul_01_1855,toilet,2021.1.3,99.8907195579627,
180,180,4,-4,0.85,,,,,1,0,1,0,0,31,31,35,,,,,,,,,,,,,,,,,,,,,,,551.4811874000588,None,551.4811874000588,None,550.9808366000652,None,j,0.43066089996136725,551.4811874000588,None,,,,,,,d,001,2021_Jul_01_1855,toilet,2021.1.3,99.8907195579627,
0,180,4,-4,0.85,,,,,1,0,1,0,0,32,32,21,,,,,,,,,,,,,,,,,,,,,,,552.9121430000523,None,552.9121430000523,None,552.4118057000451,None,j,0.5036191999679431,552.9121430000523,None,,,,,,,d,001,2021_Jul_01_1855,toilet,2021.1.3,99.8907195579627,
180,180,4,-4,0.94,,,,,1,0,1,0,0,33,33,36,,,,,,,,,,,,,,,,,,,,,,,554.4231622000225,None,554.4231622000225,None,553.9228289000457,None,j,0.5608010001014918,554.4231622000225,None,,,,,,,d,001,2021_Jul_01_1855,toilet,2021.1.3,99.8907195579627,
0,180,-4,4,0.97,,,,,1,0,1,0,0,34,34,16,,,,,,,,,,,,,,,,,,,,,,,555.9942298999522,None,555.9942298999522,None,555.4938828999875,None,f,0.4615153999766335,555.9942298999522,None,,,,,,,d,001,2021_Jul_01_1855,toilet,2021.1.3,99.8907195579627,
0,0,4,-4,1.0,,,,,1,0,1,0,0,35,35,10,,,,,,,,,,,,,,,,,,,,,,,557.4652259000577,None,557.4652259000577,None,556.9649850999704,None,j,0.4784765000222251,557.4652259000577,None,,,,,,,d,001,2021_Jul_01_1855,toilet,2021.1.3,99.8907195579627,
180,0,4,-4,0.94,,,,,1,0,1,0,0,36,36,50,,,,,,,,,,,,,,,,,,,,,,,558.9562368000625,None,558.9562368000625,None,558.4559003000613,None,j,0.4274000000441447,558.9562368000625,None,,,,,,,d,001,2021_Jul_01_1855,toilet,2021.1.3,99.8907195579627,
0,180,-4,4,1.0,,,,,1,0,1,0,0,37,37,17,,,,,,,,,,,,,,,,,,,,,,,560.3872034000233,None,560.3872034000233,None,559.8868627999909,None,j,1.7804487000685185,560.3872034000233,None,,,,,,,d,001,2021_Jul_01_1855,toilet,2021.1.3,99.8907195579627,
0,180,4,-4,1.06,,,,,1,0,1,0,0,38,38,26,,,,,,,,,,,,,,,,,,,,,,,563.1690919999965,None,563.1690919999965,None,562.6687543999869,None,f,0.614716799929738,563.1690919999965,None,,,,,,,d,001,2021_Jul_01_1855,toilet,2021.1.3,99.8907195579627,
0,0,-4,4,1.06,,,,,1,0,1,0,0,39,39,5,,,,,,,,,,,,,,,,,,,,,,,564.8002055999823,None,564.8002055999823,None,564.299944999977,None,j,0.5354080999968573,564.8002055999823,None,,,,,,,d,001,2021_Jul_01_1855,toilet,2021.1.3,99.8907195579627,
0,0,-4,4,1.03,,,,,1,0,1,0,0,40,40,4,,,,,,,,,,,,,,,,,,,,,,,566.3512466000393,None,566.3512466000393,None,565.8509449999547,None,j,1.0164099000394344,566.3512466000393,None,,,,,,,d,001,2021_Jul_01_1855,toilet,2021.1.3,99.8907195579627,
0,0,4,-4,0.94,,,,,1,0,1,0,0,41,41,8,,,,,,,,,,,,,,,,,,,,,,,568.3726183000254,None,568.3726183000254,None,567.8722785999998,None,j,0.5951869999989867,568.3726183000254,None,,,,,,,d,001,2021_Jul_01_1855,toilet,2021.1.3,99.8907195579627,
0,0,4,-4,1.15,,,,,1,0,1,0,0,42,42,13,,,,,,,,,,,,,,,,,,,,,,,569.9937129999744,None,569.9937129999744,None,569.493373000063,None,f,0.5260850000195205,569.9937129999744,None,,,,,,,d,001,2021_Jul_01_1855,toilet,2021.1.3,99.8907195579627,
0,180,4,-4,1.03,,,,,1,0,1,0,0,43,43,25,,,,,,,,,,,,,,,,,,,,,,,571.5648607000476,None,571.5648607000476,None,571.0644373999676,None,j,1.5469755999511108,571.5648607000476,None,,,,,,,d,001,2021_Jul_01_1855,toilet,2021.1.3,99.8907195579627,
0,180,-4,4,0.94,,,,,1,0,1,0,0,44,44,15,,,,,,,,,,,,,,,,,,,,,,,574.1165054000448,None,574.1165054000448,None,573.6161655000178,None,f,0.9471148999873549,574.1165054000448,None,,,,,,,d,001,2021_Jul_01_1855,toilet,2021.1.3,99.8907195579627,
180,0,-4,4,1.15,,,,,1,0,1,0,0,45,45,48,,,,,,,,,,,,,,,,,,,,,,,576.0678224000148,None,576.0678224000148,None,575.5674874000251,None,j,0.46796339994762093,576.0678224000148,None,,,,,,,d,001,2021_Jul_01_1855,toilet,2021.1.3,99.8907195579627,
0,0,4,-4,0.97,,,,,1,0,1,0,0,46,46,9,,,,,,,,,,,,,,,,,,,,,,,577.5488329000073,None,577.5488329000073,None,577.0484917999711,None,j,1.770784999942407,577.5488329000073,None,,,,,,,d,001,2021_Jul_01_1855,toilet,2021.1.3,99.8907195579627,
180,0,-4,4,0.97,,,,,1,0,1,0,0,47,47,44,,,,,,,,,,,,,,,,,,,,,,,580.3207945000613,None,580.3207945000613,None,579.8203948000446,None,f,0.6309408000670373,580.3207945000613,None,,,,,,,d,001,2021_Jul_01_1855,toilet,2021.1.3,99.8907195579627,
180,180,-4,4,0.94,,,,,1,0,1,0,0,48,48,29,,,,,,,,,,,,,,,,,,,,,,,581.95181280002,None,581.95181280002,None,581.4514782000333,None,f,0.5677736001089215,581.95181280002,None,,,,,,,d,001,2021_Jul_01_1855,toilet,2021.1.3,99.8907195579627,
0,0,-4,4,0.94,,,,,1,0,1,0,0,49,49,1,,,,,,,,,,,,,,,,,,,,,,,583.5228784000501,None,583.5228784000501,None,583.0225340999896,None,f,0.5009973000269383,583.5228784000501,None,,,,,,,d,001,2021_Jul_01_1855,toilet,2021.1.3,99.8907195579627,
180,180,4,-4,1.03,,,,,1,0,1,0,0,50,50,39,,,,,,,,,,,,,,,,,,,,,,,585.0339045999572,None,585.0339045999572,None,584.5335606000153,None,f,0.573958000051789,585.0339045999572,None,,,,,,,d,001,2021_Jul_01_1855,toilet,2021.1.3,99.8907195579627,
180,0,4,-4,1.15,,,,,1,0,1,0,0,51,51,55,,,,,,,,,,,,,,,,,,,,,,,586.6249772000592,None,586.6249772000592,None,586.1247318000533,None,f,0.5346735999919474,586.6249772000592,None,,,,,,,d,001,2021_Jul_01_1855,toilet,2021.1.3,99.8907195579627,
0,0,4,-4,1.03,,,,,1,0,1,0,0,52,52,11,,,,,,,,,,,,,,,,,,,,,,,588.1760647000046,None,588.1760647000046,None,587.6757720999885,None,f,1.1275127000408247,588.1760647000046,None,,,,,,,d,001,2021_Jul_01_1855,toilet,2021.1.3,99.8907195579627,
0,180,4,-4,1.0,,,,,1,0,1,0,0,53,53,24,,,,,,,,,,,,,,,,,,,,,,,590.3074771000538,None,590.3074771000538,None,589.8071585999569,None,f,0.8041068000020459,590.3074771000538,None,,,,,,,d,001,2021_Jul_01_1855,toilet,2021.1.3,99.8907195579627,
0,0,-4,4,0.97,,,,,1,0,1,0,0,54,54,2,,,,,,,,,,,,,,,,,,,,,,,592.1186987999827,None,592.1186987999827,None,591.6183682000265,None,j,0.5450736000202596,592.1186987999827,None,,,,,,,d,001,2021_Jul_01_1855,toilet,2021.1.3,99.8907195579627,
180,180,4,-4,1.06,,,,,1,0,1,0,0,55,55,40,,,,,,,,,,,,,,,,,,,,,,,593.6898433000315,None,593.6898433000315,None,593.1894285000162,None,f,0.5097139999270439,593.6898433000315,None,,,,,,,d,001,2021_Jul_01_1855,toilet,2021.1.3,99.8907195579627,
180,180,4,-4,1.06,,,,,1,0,1,0,1,0,56,40,,,,,,,,,,,,,,,,,,,,,,,595.2008670000359,None,595.2008670000359,None,594.7004843000323,None,f,0.5028639999218285,595.2008670000359,None,,,,,,,d,001,2021_Jul_01_1855,toilet,2021.1.3,99.8907195579627,
0,0,-4,4,0.97,,,,,1,0,1,0,1,1,57,2,,,,,,,,,,,,,,,,,,,,,,,596.7118117000209,None,596.7118117000209,None,596.2114715999924,None,f,0.5438803000142798,596.7118117000209,None,,,,,,,d,001,2021_Jul_01_1855,toilet,2021.1.3,99.8907195579627,
0,0,4,-4,1.0,,,,,1,0,1,0,1,2,58,10,,,,,,,,,,,,,,,,,,,,,,,598.2628581000026,None,598.2628581000026,None,597.7625222000061,None,f,0.44888539996463805,598.2628581000026,None,,,,,,,d,001,2021_Jul_01_1855,toilet,2021.1.3,99.8907195579627,
180,180,4,-4,1.15,,,,,1,0,1,0,1,3,59,41,,,,,,,,,,,,,,,,,,,,,,,599.723850099952,None,599.723850099952,None,599.223507000017,None,f,1.3397735999897122,599.723850099952,None,,,,,,,d,001,2021_Jul_01_1855,toilet,2021.1.3,99.8907195579627,
0,0,-4,4,1.03,,,,,1,0,1,0,1,4,60,4,,,,,,,,,,,,,,,,,,,,,,,602.0655196000589,None,602.0655196000589,None,601.5651072000619,None,j,0.4381065000779927,602.0655196000589,None,,,,,,,d,001,2021_Jul_01_1855,toilet,2021.1.3,99.8907195579627,
0,0,4,-4,0.94,,,,,1,0,1,0,1,5,61,8,,,,,,,,,,,,,,,,,,,,,,,603.5164210000075,None,603.5164210000075,None,603.0160807999782,None,j,0.5391933999489993,603.5164210000075,None,,,,,,,d,001,2021_Jul_01_1855,toilet,2021.1.3,99.8907195579627,
180,0,-4,4,0.97,,,,,1,0,1,0,1,6,62,44,,,,,,,,,,,,,,,,,,,,,,,605.0574699999997,None,605.0574699999997,None,604.5571250000503,None,f,0.4061477999202907,605.0574699999997,None,,,,,,,d,001,2021_Jul_01_1855,toilet,2021.1.3,99.8907195579627,
0,180,4,-4,0.94,,,,,1,0,1,0,1,7,63,22,,,,,,,,,,,,,,,,,,,,,,,606.4684232999571,None,606.4684232999571,None,605.9680785000091,None,j,0.5153402000432834,606.4684232999571,None,,,,,,,d,001,2021_Jul_01_1855,toilet,2021.1.3,99.8907195579627,
0,180,-4,4,0.85,,,,,1,0,1,0,1,8,64,14,,,,,,,,,,,,,,,,,,,,,,,608.0094653000124,None,608.0094653000124,None,607.509130600025,None,f,0.4624057998880744,608.0094653000124,None,,,,,,,d,001,2021_Jul_01_1855,toilet,2021.1.3,99.8907195579627,
0,0,-4,4,1.06,,,,,1,0,1,0,1,9,65,5,,,,,,,,,,,,,,,,,,,,,,,609.5005110000493,None,609.5005110000493,None,609.00024329999,None,j,0.36320220003835857,609.5005110000493,None,,,,,,,d,001,2021_Jul_01_1855,toilet,2021.1.3,99.8907195579627,
180,0,4,-4,1.03,,,,,1,0,1,0,1,10,66,53,,,,,,,,,,,,,,,,,,,,,,,610.871400999953,None,610.871400999953,None,610.3711488000117,None,j,0.4481939000543207,610.871400999953,None,,,,,,,d,001,2021_Jul_01_1855,toilet,2021.1.3,99.8907195579627,
180,0,-4,4,1.03,,,,,1,0,1,0,1,11,67,46,,,,,,,,,,,,,,,,,,,,,,,612.322382900049,None,612.322382900049,None,611.8220481000608,None,f,0.48537640005815774,612.322382900049,None,,,,,,,d,001,2021_Jul_01_1855,toilet,2021.1.3,99.8907195579627,
180,180,-4,4,1.06,,,,,1,0,1,0,1,12,68,33,,,,,,,,,,,,,,,,,,,,,,,613.8334125999827,None,613.8334125999827,None,613.3330704000546,None,j,0.47837239992804825,613.8334125999827,None,,,,,,,d,001,2021_Jul_01_1855,toilet,2021.1.3,99.8907195579627,
0,180,-4,4,0.97,,,,,1,0,1,0,1,13,69,16,,,,,,,,,,,,,,,,,,,,,,,615.3244172000559,None,615.3244172000559,None,614.8240775000304,None,f,0.9073161999695003,615.3244172000559,None,,,,,,,d,001,2021_Jul_01_1855,toilet,2021.1.3,99.8907195579627,
0,0,4,-4,1.03,,,,,1,0,1,0,1,14,70,11,,,,,,,,,,,,,,,,,,,,,,,617.2557902999688,None,617.2557902999688,None,616.7553906999528,None,f,0.5759656999725848,617.2557902999688,None,,,,,,,d,001,2021_Jul_01_1855,toilet,2021.1.3,99.8907195579627,
180,0,-4,4,1.06,,,,,1,0,1,0,1,15,71,47,,,,,,,,,,,,,,,,,,,,,,,618.8367956000147,None,618.8367956000147,None,618.3364608000265,None,j,0.6910515999188647,618.8367956000147,None,,,,,,,d,001,2021_Jul_01_1855,toilet,2021.1.3,99.8907195579627,
0,0,-4,4,1.0,,,,,1,0,1,0,1,16,72,3,,,,,,,,,,,,,,,,,,,,,,,620.527953700046,None,620.527953700046,None,620.0276015000418,None,f,2.16783349995967,620.527953700046,None,,,,,,,d,001,2021_Jul_01_1855,toilet,2021.1.3,99.8907195579627,
0,0,4,-4,0.85,,,,,1,0,1,0,1,17,73,7,,,,,,,,,,,,,,,,,,,,,,,623.7202028000029,None,623.7202028000029,None,623.2197508000536,None,j,0.49553329998161644,623.7202028000029,None,,,,,,,d,001,2021_Jul_01_1855,toilet,2021.1.3,99.8907195579627,
0,180,-4,4,1.15,,,,,1,0,1,0,1,18,74,20,,,,,,,,,,,,,,,,,,,,,,,625.2312327000545,None,625.2312327000545,None,624.7308036000468,None,j,0.4725376000860706,625.2312327000545,None,,,,,,,d,001,2021_Jul_01_1855,toilet,2021.1.3,99.8907195579627,
0,180,4,-4,1.15,,,,,1,0,1,0,1,19,75,27,,,,,,,,,,,,,,,,,,,,,,,626.7121317000128,None,626.7121317000128,None,626.2117926999927,None,f,0.4635627999668941,626.7121317000128,None,,,,,,,d,001,2021_Jul_01_1855,toilet,2021.1.3,99.8907195579627,
180,180,4,-4,0.94,,,,,1,0,1,0,1,20,76,36,,,,,,,,,,,,,,,,,,,,,,,628.1831339000491,None,628.1831339000491,None,627.6827917000046,None,j,0.7045078000519425,628.1831339000491,None,,,,,,,d,001,2021_Jul_01_1855,toilet,2021.1.3,99.8907195579627,
180,0,-4,4,0.85,,,,,1,0,1,0,1,21,77,42,,,,,,,,,,,,,,,,,,,,,,,629.9042914999882,None,629.9042914999882,None,629.4039547999855,None,f,0.4554419999476522,629.9042914999882,None,,,,,,,d,001,2021_Jul_01_1855,toilet,2021.1.3,99.8907195579627,
180,0,4,-4,0.85,,,,,1,0,1,0,1,22,78,49,,,,,,,,,,,,,,,,,,,,,,,631.3753123000497,None,631.3753123000497,None,630.8750323000131,None,j,0.47243039996828884,631.3753123000497,None,,,,,,,d,001,2021_Jul_01_1855,toilet,2021.1.3,99.8907195579627,
180,180,-4,4,0.85,,,,,1,0,1,0,1,23,79,28,,,,,,,,,,,,,,,,,,,,,,,632.8663038000232,None,632.8663038000232,None,632.3660017000511,None,f,0.45343610004056245,632.8663038000232,None,,,,,,,d,001,2021_Jul_01_1855,toilet,2021.1.3,99.8907195579627,
180,180,4,-4,1.03,,,,,1,0,1,0,1,24,80,39,,,,,,,,,,,,,,,,,,,,,,,634.3273351000389,None,634.3273351000389,None,633.8269552000565,None,f,0.5442340000299737,634.3273351000389,None,,,,,,,d,001,2021_Jul_01_1855,toilet,2021.1.3,99.8907195579627,
180,0,4,-4,1.06,,,,,1,0,1,0,1,25,81,54,,,,,,,,,,,,,,,,,,,,,,,635.8883473000024,None,635.8883473000024,None,635.3880083999829,None,f,0.6471824999898672,635.8883473000024,None,,,,,,,d,001,2021_Jul_01_1855,toilet,2021.1.3,99.8907195579627,
180,180,-4,4,1.0,,,,,1,0,1,0,1,26,82,31,,,,,,,,,,,,,,,,,,,,,,,637.5394666000502,None,637.5394666000502,None,637.0391253000125,None,f,1.7962449999758974,637.5394666000502,None,,,,,,,d,001,2021_Jul_01_1855,toilet,2021.1.3,99.8907195579627,
180,0,-4,4,1.0,,,,,1,0,1,0,1,27,83,45,,,,,,,,,,,,,,,,,,,,,,,640.3513664000202,None,640.3513664000202,None,639.851029500016,None,f,1.4643155001103878,640.3513664000202,None,,,,,,,d,001,2021_Jul_01_1855,toilet,2021.1.3,99.8907195579627,
180,180,-4,4,1.03,,,,,1,0,1,0,1,28,84,32,,,,,,,,,,,,,,,,,,,,,,,642.8230456999736,None,642.8230456999736,None,642.3227021000348,None,j,0.52865919994656,642.8230456999736,None,,,,,,,d,001,2021_Jul_01_1855,toilet,2021.1.3,99.8907195579627,
180,180,4,-4,1.0,,,,,1,0,1,0,1,29,85,38,,,,,,,,,,,,,,,,,,,,,,,644.3640875000274,None,644.3640875000274,None,643.863753600046,None,f,1.4515512000070885,644.3640875000274,None,,,,,,,d,001,2021_Jul_01_1855,toilet,2021.1.3,99.8907195579627,
180,0,4,-4,0.97,,,,,1,0,1,0,1,30,86,51,,,,,,,,,,,,,,,,,,,,,,,646.8257927000523,None,646.8257927000523,None,646.3254233000334,None,j,0.5257646000245586,646.8257927000523,None,,,,,,,d,001,2021_Jul_01_1855,toilet,2021.1.3,99.8907195579627,
0,180,4,-4,1.06,,,,,1,0,1,0,1,31,87,26,,,,,,,,,,,,,,,,,,,,,,,648.3567897999892,None,648.3567897999892,None,647.8564498999622,None,f,0.4987546999473125,648.3567897999892,None,,,,,,,d,001,2021_Jul_01_1855,toilet,2021.1.3,99.8907195579627,
180,180,-4,4,0.97,,,,,1,0,1,0,1,32,88,30,,,,,,,,,,,,,,,,,,,,,,,649.8578113999683,None,649.8578113999683,None,649.3574721000623,None,f,0.7898307000286877,649.8578113999683,None,,,,,,,d,001,2021_Jul_01_1855,toilet,2021.1.3,99.8907195579627,
0,180,4,-4,0.97,,,,,1,0,1,0,1,33,89,23,,,,,,,,,,,,,,,,,,,,,,,651.6590268999571,None,651.6590268999571,None,651.1586962000001,None,f,0.5245988999959081,651.6590268999571,None,,,,,,,d,001,2021_Jul_01_1855,toilet,2021.1.3,99.8907195579627,
0,0,-4,4,0.85,,,,,1,0,1,0,1,34,90,0,,,,,,,,,,,,,,,,,,,,,,,653.2000738000497,None,653.2000738000497,None,652.6998232000042,None,f,0.4075353000080213,653.2000738000497,None,,,,,,,d,001,2021_Jul_01_1855,toilet,2021.1.3,99.8907195579627,
0,0,-4,4,0.94,,,,,1,0,1,0,1,35,91,1,,,,,,,,,,,,,,,,,,,,,,,654.6210347999586,None,654.6210347999586,None,654.1207885000622,None,f,0.47454530000686646,654.6210347999586,None,,,,,,,d,001,2021_Jul_01_1855,toilet,2021.1.3,99.8907195579627,
180,0,-4,4,1.15,,,,,1,0,1,0,1,36,92,48,,,,,,,,,,,,,,,,,,,,,,,656.1020403000293,None,656.1020403000293,None,655.6016992999939,None,j,0.5136739000445232,656.1020403000293,None,,,,,,,d,001,2021_Jul_01_1855,toilet,2021.1.3,99.8907195579627,
0,0,4,-4,1.15,,,,,1,0,1,0,1,37,93,13,,,,,,,,,,,,,,,,,,,,,,,657.623071399983,None,657.623071399983,None,657.1227317999583,None,f,0.4805793999694288,657.623071399983,None,,,,,,,d,001,2021_Jul_01_1855,toilet,2021.1.3,99.8907195579627,
180,0,4,-4,0.94,,,,,1,0,1,0,1,38,94,50,,,,,,,,,,,,,,,,,,,,,,,659.1040682999883,None,659.1040682999883,None,658.6037466999842,None,j,0.4556182000087574,659.1040682999883,None,,,,,,,d,001,2021_Jul_01_1855,toilet,2021.1.3,99.8907195579627,
180,180,4,-4,0.97,,,,,1,0,1,0,1,39,95,37,,,,,,,,,,,,,,,,,,,,,,,660.5750703000231,None,660.5750703000231,None,660.0748079000041,None,j,0.744560300023295,660.5750703000231,None,,,,,,,d,001,2021_Jul_01_1855,toilet,2021.1.3,99.8907195579627,
0,0,4,-4,0.97,,,,,1,0,1,0,1,40,96,9,,,,,,,,,,,,,,,,,,,,,,,662.3362590000033,None,662.3362590000033,None,661.8359570000321,None,j,1.0634255999466404,662.3362590000033,None,,,,,,,d,001,2021_Jul_01_1855,toilet,2021.1.3,99.8907195579627,
0,180,-4,4,1.0,,,,,1,0,1,0,1,41,97,17,,,,,,,,,,,,,,,,,,,,,,,664.4076652000658,None,664.4076652000658,None,663.9073262000456,None,j,0.8800254999659956,664.4076652000658,None,,,,,,,d,001,2021_Jul_01_1855,toilet,2021.1.3,99.8907195579627,
0,0,-4,4,1.15,,,,,1,0,1,0,1,42,98,6,,,,,,,,,,,,,,,,,,,,,,,666.2989466000581,None,666.2989466000581,None,665.7986085000448,None,j,0.44476580002810806,666.2989466000581,None,,,,,,,d,001,2021_Jul_01_1855,toilet,2021.1.3,99.8907195579627,
180,180,-4,4,0.94,,,,,1,0,1,0,1,43,99,29,,,,,,,,,,,,,,,,,,,,,,,667.7599566000281,None,667.7599566000281,None,667.2596861000638,None,f,0.4716493000742048,667.7599566000281,None,,,,,,,d,001,2021_Jul_01_1855,toilet,2021.1.3,99.8907195579627,
180,0,4,-4,1.0,,,,,1,0,1,0,1,44,100,52,,,,,,,,,,,,,,,,,,,,,,,669.2310084999772,None,669.2310084999772,None,668.7306759000057,None,j,0.5685294000431895,669.2310084999772,None,,,,,,,d,001,2021_Jul_01_1855,toilet,2021.1.3,99.8907195579627,
0,180,-4,4,0.94,,,,,1,0,1,0,1,45,101,15,,,,,,,,,,,,,,,,,,,,,,,670.8019953999901,None,670.8019953999901,None,670.3016538000666,None,f,0.5336258999304846,670.8019953999901,None,,,,,,,d,001,2021_Jul_01_1855,toilet,2021.1.3,99.8907195579627,
180,180,-4,4,1.15,,,,,1,0,1,0,1,46,102,34,,,,,,,,,,,,,,,,,,,,,,,672.3430354000302,None,672.3430354000302,None,671.8427020000527,None,j,0.4644889000337571,672.3430354000302,None,,,,,,,d,001,2021_Jul_01_1855,toilet,2021.1.3,99.8907195579627,
0,0,4,-4,1.06,,,,,1,0,1,0,1,47,103,12,,,,,,,,,,,,,,,,,,,,,,,673.8140348000452,None,673.8140348000452,None,673.3136955000227,None,f,0.49745690007694066,673.8140348000452,None,,,,,,,d,001,2021_Jul_01_1855,toilet,2021.1.3,99.8907195579627,
0,180,4,-4,1.03,,,,,1,0,1,0,1,48,104,25,,,,,,,,,,,,,,,,,,,,,,,675.3151425999822,None,675.3151425999822,None,674.8147185000125,None,f,0.5963343000039458,675.3151425999822,None,,,,,,,d,001,2021_Jul_01_1855,toilet,2021.1.3,99.8907195579627,
0,180,-4,4,1.03,,,,,1,0,1,0,1,49,105,18,,,,,,,,,,,,,,,,,,,,,,,676.9161415999988,None,676.9161415999988,None,676.4159035000484,None,j,3.187561700004153,676.9161415999988,None,,,,,,,d,001,2021_Jul_01_1855,toilet,2021.1.3,99.8907195579627,
180,0,-4,4,0.94,,,,,1,0,1,0,1,50,106,43,,,,,,,,,,,,,,,,,,,,,,,681.1289966000477,None,681.1289966000477,None,680.6286507999757,None,f,0.6066876000259072,681.1289966000477,None,,,,,,,d,001,2021_Jul_01_1855,toilet,2021.1.3,99.8907195579627,
0,180,4,-4,1.0,,,,,1,0,1,0,1,51,107,24,,,,,,,,,,,,,,,,,,,,,,,682.7501737000421,None,682.7501737000421,None,682.249837600044,None,f,0.7454049999359995,682.7501737000421,None,,,,,,,d,001,2021_Jul_01_1855,toilet,2021.1.3,99.8907195579627,
0,180,-4,4,1.06,,,,,1,0,1,0,1,52,108,19,,,,,,,,,,,,,,,,,,,,,,,684.5012736000353,None,684.5012736000353,None,684.0009518000297,None,j,0.8662277000257745,684.5012736000353,None,,,,,,,d,001,2021_Jul_01_1855,toilet,2021.1.3,99.8907195579627,
180,0,4,-4,1.15,,,,,1,0,1,0,1,53,109,55,,,,,,,,,,,,,,,,,,,,,,,686.372542200028,None,686.372542200028,None,685.8722064000322,None,f,0.4830391000723466,686.372542200028,None,,,,,,,d,001,2021_Jul_01_1855,toilet,2021.1.3,99.8907195579627,
180,180,4,-4,0.85,,,,,1,0,1,0,1,54,110,35,,,,,,,,,,,,,,,,,,,,,,,687.8635545000434,None,687.8635545000434,None,687.3632136000087,None,j,0.46405690000392497,687.8635545000434,None,,,,,,,d,001,2021_Jul_01_1855,toilet,2021.1.3,99.8907195579627,
0,180,4,-4,0.85,,,,,1,0,1,0,1,55,111,21,,,,,,,,,,,,,,,,,,,,,,,689.3345478000119,None,689.3345478000119,None,688.8342191999545,None,j,0.576957399956882,689.3345478000119,None,,,,,,,d,001,2021_Jul_01_1855,toilet,2021.1.3,99.8907195579627,
,,,,,,,,,1,0,1,0,,,,,,,,,,,,,,,,,,,,,,,,,,,,,,,,,,,,,689.9249453999801,None,space,22.962599299964495,689.9249453999801,None,d,001,2021_Jul_01_1855,toilet,2021.1.3,99.8907195579627,
0,180,4,-4,1.03,,,,,2,0,2,0,0,0,0,25,,,,,,,,,,,,,,,,,712.9105519000441,None,space,2.3609427999472246,712.9105519000441,None,716.2827975000255,None,716.2827975000255,None,715.782462400035,None,f,1.0207775000017136,716.2827975000255,None,,,,,,,d,001,2021_Jul_01_1855,toilet,2021.1.3,99.8907195579627,
180,0,-4,4,0.97,,,,,2,0,2,0,0,1,1,44,,,,,,,,,,,,,,,,,,,,,,,718.3141778999707,None,718.3141778999707,None,717.8138434999855,None,f,0.6375390000175685,718.3141778999707,None,,,,,,,d,001,2021_Jul_01_1855,toilet,2021.1.3,99.8907195579627,
180,0,4,-4,1.15,,,,,2,0,2,0,0,2,2,55,,,,,,,,,,,,,,,,,,,,,,,719.9753987999866,None,719.9753987999866,None,719.4750463999808,None,f,0.5924330999841914,719.9753987999866,None,,,,,,,d,001,2021_Jul_01_1855,toilet,2021.1.3,99.8907195579627,
0,0,4,-4,0.97,,,,,2,0,2,0,0,3,3,9,,,,,,,,,,,,,,,,,,,,,,,721.576385900029,None,721.576385900029,None,721.0860476000234,None,j,0.5751157000195235,721.576385900029,None,,,,,,,d,001,2021_Jul_01_1855,toilet,2021.1.3,99.8907195579627,
180,180,4,-4,1.0,,,,,2,0,2,0,0,4,4,38,,,,,,,,,,,,,,,,,,,,,,,723.1574557999847,None,723.1574557999847,None,722.6571162999608,None,f,0.7699815999949351,723.1574557999847,None,,,,,,,d,001,2021_Jul_01_1855,toilet,2021.1.3,99.8907195579627,
0,180,4,-4,1.0,,,,,2,0,2,0,0,5,5,24,,,,,,,,,,,,,,,,,,,,,,,724.9286554000573,None,724.9286554000573,None,724.428316900041,None,f,0.7430284000001848,724.9286554000573,None,,,,,,,d,001,2021_Jul_01_1855,toilet,2021.1.3,99.8907195579627,
180,180,-4,4,0.94,,,,,2,0,2,0,0,6,6,29,,,,,,,,,,,,,,,,,,,,,,,726.6899343000259,None,726.6899343000259,None,726.1895422999514,None,f,0.5816526999697089,726.6899343000259,None,,,,,,,d,001,2021_Jul_01_1855,toilet,2021.1.3,99.8907195579627,
180,0,4,-4,0.85,,,,,2,0,2,0,0,7,7,49,,,,,,,,,,,,,,,,,,,,,,,728.2809484000318,None,728.2809484000318,None,727.7806218999904,None,j,0.41454720008186996,728.2809484000318,None,,,,,,,d,001,2021_Jul_01_1855,toilet,2021.1.3,99.8907195579627,
180,0,4,-4,0.94,,,,,2,0,2,0,0,8,8,50,,,,,,,,,,,,,,,,,,,,,,,729.7018891000189,None,729.7018891000189,None,729.2015514000086,None,j,0.36957120010629296,729.7018891000189,None,,,,,,,d,001,2021_Jul_01_1855,toilet,2021.1.3,99.8907195579627,
180,0,-4,4,1.15,,,,,2,0,2,0,0,9,9,48,,,,,,,,,,,,,,,,,,,,,,,731.0728169999784,None,731.0728169999784,None,730.5724733000388,None,j,0.5826017999788746,731.0728169999784,None,,,,,,,d,001,2021_Jul_01_1855,toilet,2021.1.3,99.8907195579627,
0,180,-4,4,1.03,,,,,2,0,2,0,0,10,10,18,,,,,,,,,,,,,,,,,,,,,,,732.6639053999679,None,732.6639053999679,None,732.1635540999705,None,j,0.5916127000236884,732.6639053999679,None,,,,,,,d,001,2021_Jul_01_1855,toilet,2021.1.3,99.8907195579627,
180,180,-4,4,0.85,,,,,2,0,2,0,0,11,11,28,,,,,,,,,,,,,,,,,,,,,,,734.2649817999918,None,734.2649817999918,None,733.764735099976,None,f,0.4626461999723688,734.2649817999918,None,,,,,,,d,001,2021_Jul_01_1855,toilet,2021.1.3,99.8907195579627,
180,180,-4,4,1.06,,,,,2,0,2,0,0,12,12,33,,,,,,,,,,,,,,,,,,,,,,,735.7359824000159,None,735.7359824000159,None,735.2357338999864,None,j,0.463652899954468,735.7359824000159,None,,,,,,,d,001,2021_Jul_01_1855,toilet,2021.1.3,99.8907195579627,
180,0,4,-4,1.03,,,,,2,0,2,0,0,13,13,53,,,,,,,,,,,,,,,,,,,,,,,737.2069779000012,None,737.2069779000012,None,736.7066362999612,None,f,0.5925302999094129,737.2069779000012,None,,,,,,,d,001,2021_Jul_01_1855,toilet,2021.1.3,99.8907195579627,
0,0,-4,4,0.97,,,,,2,0,2,0,0,14,14,2,,,,,,,,,,,,,,,,,,,,,,,738.8080568000441,None,738.8080568000441,None,738.3077165000141,None,f,0.4954368000617251,738.8080568000441,None,,,,,,,d,001,2021_Jul_01_1855,toilet,2021.1.3,99.8907195579627,
0,0,-4,4,1.0,,,,,2,0,2,0,0,15,15,3,,,,,,,,,,,,,,,,,,,,,,,740.3090719999745,None,740.3090719999745,None,739.8087393000023,None,j,2.5304802999598905,740.3090719999745,None,,,,,,,d,001,2021_Jul_01_1855,toilet,2021.1.3,99.8907195579627,
180,180,4,-4,1.06,,,,,2,0,2,0,0,16,16,40,,,,,,,,,,,,,,,,,,,,,,,743.8514770000475,None,743.8514770000475,None,743.351136000012,None,f,1.4999884000280872,743.8514770000475,None,,,,,,,d,001,2021_Jul_01_1855,toilet,2021.1.3,99.8907195579627,
180,180,4,-4,1.03,,,,,2,0,2,0,0,17,17,39,,,,,,,,,,,,,,,,,,,,,,,746.3531759000616,None,746.3531759000616,None,745.8528278999729,None,f,1.3502852000528947,746.3531759000616,None,,,,,,,d,001,2021_Jul_01_1855,toilet,2021.1.3,99.8907195579627,
0,180,4,-4,1.06,,,,,2,0,2,0,0,18,18,26,,,,,,,,,,,,,,,,,,,,,,,748.7048581000417,None,748.7048581000417,None,748.204422699986,None,f,0.6147356999572366,748.7048581000417,None,,,,,,,d,001,2021_Jul_01_1855,toilet,2021.1.3,99.8907195579627,
180,0,-4,4,1.0,,,,,2,0,2,0,0,19,19,45,,,,,,,,,,,,,,,,,,,,,,,750.3258612999925,None,750.3258612999925,None,749.825607100036,None,f,0.8817290000151843,750.3258612999925,None,,,,,,,d,001,2021_Jul_01_1855,toilet,2021.1.3,99.8907195579627,
180,180,-4,4,1.0,,,,,2,0,2,0,0,20,20,31,,,,,,,,,,,,,,,,,,,,,,,752.2071311000036,None,752.2071311000036,None,751.7067995000398,None,f,1.672395100002177,752.2071311000036,None,,,,,,,d,001,2021_Jul_01_1855,toilet,2021.1.3,99.8907195579627,
0,180,4,-4,0.97,,,,,2,0,2,0,0,21,21,23,,,,,,,,,,,,,,,,,,,,,,,754.8889516000636,None,754.8889516000636,None,754.388609000016,None,j,1.2785916000138968,754.8889516000636,None,,,,,,,d,001,2021_Jul_01_1855,toilet,2021.1.3,99.8907195579627,
0,180,-4,4,0.94,,,,,2,0,2,0,0,22,22,15,,,,,,,,,,,,,,,,,,,,,,,757.1805568999844,None,757.1805568999844,None,756.6801694000605,None,f,0.6509709000820294,757.1805568999844,None,,,,,,,d,001,2021_Jul_01_1855,toilet,2021.1.3,99.8907195579627,
0,180,-4,4,0.97,,,,,2,0,2,0,0,23,23,16,,,,,,,,,,,,,,,,,,,,,,,758.8316216999665,None,758.8316216999665,None,758.331286199973,None,j,2.2000556000275537,758.8316216999665,None,,,,,,,d,001,2021_Jul_01_1855,toilet,2021.1.3,99.8907195579627,
180,180,-4,4,0.97,,,,,2,0,2,0,0,24,24,30,,,,,,,,,,,,,,,,,,,,,,,762.0438031000085,None,762.0438031000085,None,761.543465499999,None,j,1.1956569999456406,762.0438031000085,None,,,,,,,d,001,2021_Jul_01_1855,toilet,2021.1.3,99.8907195579627,
180,0,4,-4,1.0,,,,,2,0,2,0,0,25,25,52,,,,,,,,,,,,,,,,,,,,,,,764.2453813999891,None,764.2453813999891,None,763.7449900000356,None,j,0.4660547999665141,764.2453813999891,None,,,,,,,d,001,2021_Jul_01_1855,toilet,2021.1.3,99.8907195579627,
180,180,-4,4,1.15,,,,,2,0,2,0,0,26,26,34,,,,,,,,,,,,,,,,,,,,,,,765.7162800000515,None,765.7162800000515,None,765.215959400055,None,j,0.4191227999981493,765.7162800000515,None,,,,,,,d,001,2021_Jul_01_1855,toilet,2021.1.3,99.8907195579627,
180,0,-4,4,0.85,,,,,2,0,2,0,0,27,27,42,,,,,,,,,,,,,,,,,,,,,,,767.1372498000273,None,767.1372498000273,None,766.636904999963,None,f,0.4381954000564292,767.1372498000273,None,,,,,,,d,001,2021_Jul_01_1855,toilet,2021.1.3,99.8907195579627,
0,0,4,-4,1.06,,,,,2,0,2,0,0,28,28,12,,,,,,,,,,,,,,,,,,,,,,,768.5782284999732,None,768.5782284999732,None,768.0778839000268,None,f,0.48538640001788735,768.5782284999732,None,,,,,,,d,001,2021_Jul_01_1855,toilet,2021.1.3,99.8907195579627,
0,0,4,-4,1.03,,,,,2,0,2,0,0,29,29,11,,,,,,,,,,,,,,,,,,,,,,,770.0892483000644,None,770.0892483000644,None,769.5889088000404,None,j,0.41434030001983047,770.0892483000644,None,,,,,,,d,001,2021_Jul_01_1855,toilet,2021.1.3,99.8907195579627,
180,0,-4,4,1.03,,,,,2,0,2,0,0,30,30,46,,,,,,,,,,,,,,,,,,,,,,,771.5102079999633,None,771.5102079999633,None,771.0199610999553,None,f,1.3292272000107914,771.5102079999633,None,,,,,,,d,001,2021_Jul_01_1855,toilet,2021.1.3,99.8907195579627,
0,180,-4,4,0.85,,,,,2,0,2,0,0,31,31,14,,,,,,,,,,,,,,,,,,,,,,,773.8417926999973,None,773.8417926999973,None,773.3414558999939,None,f,0.5016785999760032,773.8417926999973,None,,,,,,,d,001,2021_Jul_01_1855,toilet,2021.1.3,99.8907195579627,
0,0,-4,4,0.94,,,,,2,0,2,0,0,32,32,1,,,,,,,,,,,,,,,,,,,,,,,775.3428105000639,None,775.3428105000639,None,774.8424685000209,None,f,0.47280930005945265,775.3428105000639,None,,,,,,,d,001,2021_Jul_01_1855,toilet,2021.1.3,99.8907195579627,
180,180,4,-4,1.15,,,,,2,0,2,0,0,33,33,41,,,,,,,,,,,,,,,,,,,,,,,776.8338430000003,None,776.8338430000003,None,776.3334766000044,None,f,0.46971869992557913,776.8338430000003,None,,,,,,,d,001,2021_Jul_01_1855,toilet,2021.1.3,99.8907195579627,
0,0,-4,4,1.15,,,,,2,0,2,0,0,34,34,6,,,,,,,,,,,,,,,,,,,,,,,778.3148926000576,None,778.3148926000576,None,777.8144834999694,None,j,0.3807624001055956,778.3148926000576,None,,,,,,,d,001,2021_Jul_01_1855,toilet,2021.1.3,99.8907195579627,
0,0,4,-4,1.15,,,,,2,0,2,0,0,35,35,13,,,,,,,,,,,,,,,,,,,,,,,779.7057585000293,None,779.7057585000293,None,779.2055111000082,None,f,0.5256650000810623,779.7057585000293,None,,,,,,,d,001,2021_Jul_01_1855,toilet,2021.1.3,99.8907195579627,
0,180,4,-4,1.15,,,,,2,0,2,0,0,36,36,27,,,,,,,,,,,,,,,,,,,,,,,781.2367997999536,None,781.2367997999536,None,780.7364597000415,None,f,0.594675499945879,781.2367997999536,None,,,,,,,d,001,2021_Jul_01_1855,toilet,2021.1.3,99.8907195579627,
0,180,-4,4,1.0,,,,,2,0,2,0,0,37,37,17,,,,,,,,,,,,,,,,,,,,,,,782.847894800012,None,782.847894800012,None,782.3475498000626,None,j,0.7277145999250934,782.847894800012,None,,,,,,,d,001,2021_Jul_01_1855,toilet,2021.1.3,99.8907195579627,
0,180,-4,4,1.06,,,,,2,0,2,0,0,38,38,19,,,,,,,,,,,,,,,,,,,,,,,784.5890685999766,None,784.5890685999766,None,784.0887324999785,None,j,0.47456929995678365,784.5890685999766,None,,,,,,,d,001,2021_Jul_01_1855,toilet,2021.1.3,99.8907195579627,
0,180,4,-4,0.85,,,,,2,0,2,0,0,39,39,21,,,,,,,,,,,,,,,,,,,,,,,786.0801733999979,None,786.0801733999979,None,785.579822300002,None,j,0.5353889999678358,786.0801733999979,None,,,,,,,d,001,2021_Jul_01_1855,toilet,2021.1.3,99.8907195579627,
180,0,-4,4,1.06,,,,,2,0,2,0,0,40,40,47,,,,,,,,,,,,,,,,,,,,,,,787.631129699992,None,787.631129699992,None,787.1308274000185,None,j,0.44026509998366237,787.631129699992,None,,,,,,,d,001,2021_Jul_01_1855,toilet,2021.1.3,99.8907195579627,
0,0,4,-4,0.94,,,,,2,0,2,0,0,41,41,8,,,,,,,,,,,,,,,,,,,,,,,789.0721032000147,None,789.0721032000147,None,788.5717825000174,None,j,0.519320199964568,789.0721032000147,None,,,,,,,d,001,2021_Jul_01_1855,toilet,2021.1.3,99.8907195579627,
0,0,-4,4,0.85,,,,,2,0,2,0,0,42,42,0,,,,,,,,,,,,,,,,,,,,,,,790.5931337999646,None,790.5931337999646,None,790.09279470006,None,f,0.5023563000140712,790.5931337999646,None,,,,,,,d,001,2021_Jul_01_1855,toilet,2021.1.3,99.8907195579627,
180,0,4,-4,1.06,,,,,2,0,2,0,0,43,43,54,,,,,,,,,,,,,,,,,,,,,,,792.114163500024,None,792.114163500024,None,791.6138247000054,None,f,1.7972252001054585,792.114163500024,None,,,,,,,d,001,2021_Jul_01_1855,toilet,2021.1.3,99.8907195579627,
180,180,4,-4,0.97,,,,,2,0,2,0,0,44,44,37,,,,,,,,,,,,,,,,,,,,,,,794.916061899974,None,794.916061899974,None,794.4157235999592,None,j,0.4513739999383688,794.916061899974,None,,,,,,,d,001,2021_Jul_01_1855,toilet,2021.1.3,99.8907195579627,
0,0,4,-4,1.0,,,,,2,0,2,0,0,45,45,10,,,,,,,,,,,,,,,,,,,,,,,796.367045299965,None,796.367045299965,None,795.8667053000536,None,j,1.0163610000163317,796.367045299965,None,,,,,,,d,001,2021_Jul_01_1855,toilet,2021.1.3,99.8907195579627,
180,180,-4,4,1.03,,,,,2,0,2,0,0,46,46,32,,,,,,,,,,,,,,,,,,,,,,,798.3884220999898,None,798.3884220999898,None,797.8880773000419,None,j,1.2829849999397993,798.3884220999898,None,,,,,,,d,001,2021_Jul_01_1855,toilet,2021.1.3,99.8907195579627,
180,0,4,-4,0.97,,,,,2,0,2,0,0,47,47,51,,,,,,,,,,,,,,,,,,,,,,,800.6900114000309,None,800.6900114000309,None,800.1896402999992,None,j,0.5335381999611855,800.6900114000309,None,,,,,,,d,001,2021_Jul_01_1855,toilet,2021.1.3,99.8907195579627,
0,180,-4,4,1.15,,,,,2,0,2,0,0,48,48,20,,,,,,,,,,,,,,,,,,,,,,,802.23108399997,None,802.23108399997,None,801.7306797000347,None,j,0.5283242999576032,802.23108399997,None,,,,,,,d,001,2021_Jul_01_1855,toilet,2021.1.3,99.8907195579627,
0,0,4,-4,0.85,,,,,2,0,2,0,0,49,49,7,,,,,,,,,,,,,,,,,,,,,,,803.7620586999692,None,803.7620586999692,None,803.2617154000327,None,j,0.45346190000418574,803.7620586999692,None,,,,,,,d,001,2021_Jul_01_1855,toilet,2021.1.3,99.8907195579627,
0,0,-4,4,1.06,,,,,2,0,2,0,0,50,50,5,,,,,,,,,,,,,,,,,,,,,,,805.2430633000331,None,805.2430633000331,None,804.7427186999703,None,j,0.4604065000312403,805.2430633000331,None,,,,,,,d,001,2021_Jul_01_1855,toilet,2021.1.3,99.8907195579627,
180,180,4,-4,0.94,,,,,2,0,2,0,0,51,51,36,,,,,,,,,,,,,,,,,,,,,,,806.7140608000336,None,806.7140608000336,None,806.2137196999975,None,j,0.4455036000581458,806.7140608000336,None,,,,,,,d,001,2021_Jul_01_1855,toilet,2021.1.3,99.8907195579627,
0,0,-4,4,1.03,,,,,2,0,2,0,0,52,52,4,,,,,,,,,,,,,,,,,,,,,,,808.1850593000418,None,808.1850593000418,None,807.6847147999797,None,f,0.5904070000397041,808.1850593000418,None,,,,,,,d,001,2021_Jul_01_1855,toilet,2021.1.3,99.8907195579627,
0,180,4,-4,0.94,,,,,2,0,2,0,0,53,53,22,,,,,,,,,,,,,,,,,,,,,,,809.7761279999977,None,809.7761279999977,None,809.275894499966,None,j,0.5672673999797553,809.7761279999977,None,,,,,,,d,001,2021_Jul_01_1855,toilet,2021.1.3,99.8907195579627,
180,180,4,-4,0.85,,,,,2,0,2,0,0,54,54,35,,,,,,,,,,,,,,,,,,,,,,,811.347195600043,None,811.347195600043,None,810.8468600000488,None,j,0.42017549998126924,811.347195600043,None,,,,,,,d,001,2021_Jul_01_1855,toilet,2021.1.3,99.8907195579627,
180,0,-4,4,0.94,,,,,2,0,2,0,0,55,55,43,,,,,,,,,,,,,,,,,,,,,,,812.7681579999626,None,812.7681579999626,None,812.2678195000626,None,f,0.37525619997177273,812.7681579999626,None,,,,,,,d,001,2021_Jul_01_1855,toilet,2021.1.3,99.8907195579627,
180,180,4,-4,1.06,,,,,2,0,2,0,1,0,56,40,,,,,,,,,,,,,,,,,,,,,,,814.1490895999596,None,814.1490895999596,None,813.6487502000527,None,f,0.4823383999755606,814.1490895999596,None,,,,,,,d,001,2021_Jul_01_1855,toilet,2021.1.3,99.8907195579627,
180,180,-4,4,1.0,,,,,2,0,2,0,1,1,57,31,,,,,,,,,,,,,,,,,,,,,,,815.6401845000219,None,815.6401845000219,None,815.1398466000101,None,f,0.7992575999815017,815.6401845000219,None,,,,,,,d,001,2021_Jul_01_1855,toilet,2021.1.3,99.8907195579627,
0,180,-4,4,0.85,,,,,2,0,2,0,1,2,58,14,,,,,,,,,,,,,,,,,,,,,,,817.4513278000522,None,817.4513278000522,None,816.9509890000336,None,f,0.4600234000245109,817.4513278000522,None,,,,,,,d,001,2021_Jul_01_1855,toilet,2021.1.3,99.8907195579627,
180,180,4,-4,1.15,,,,,2,0,2,0,1,3,59,41,,,,,,,,,,,,,,,,,,,,,,,818.9123235000297,None,818.9123235000297,None,818.411983900005,None,f,0.3910648000892252,818.9123235000297,None,,,,,,,d,001,2021_Jul_01_1855,toilet,2021.1.3,99.8907195579627,
0,180,4,-4,0.94,,,,,2,0,2,0,1,4,60,22,,,,,,,,,,,,,,,,,,,,,,,820.3032600999577,None,820.3032600999577,None,819.8029227000661,None,j,0.520276700030081,820.3032600999577,None,,,,,,,d,001,2021_Jul_01_1855,toilet,2021.1.3,99.8907195579627,
0,0,4,-4,0.85,,,,,2,0,2,0,1,5,61,7,,,,,,,,,,,,,,,,,,,,,,,821.8343026000075,None,821.8343026000075,None,821.334006399964,None,j,0.38103920000139624,821.8343026000075,None,,,,,,,d,001,2021_Jul_01_1855,toilet,2021.1.3,99.8907195579627,
180,0,-4,4,0.85,,,,,2,0,2,0,1,6,62,42,,,,,,,,,,,,,,,,,,,,,,,823.2153116000118,None,823.2153116000118,None,822.7148945999797,None,f,0.3440664999652654,823.2153116000118,None,,,,,,,d,001,2021_Jul_01_1855,toilet,2021.1.3,99.8907195579627,
180,180,4,-4,0.97,,,,,2,0,2,0,1,7,63,37,,,,,,,,,,,,,,,,,,,,,,,824.5661494999658,None,824.5661494999658,None,824.0658258000622,None,j,0.4332884999457747,824.5661494999658,None,,,,,,,d,001,2021_Jul_01_1855,toilet,2021.1.3,99.8907195579627,
180,0,4,-4,1.0,,,,,2,0,2,0,1,8,64,52,,,,,,,,,,,,,,,,,,,,,,,826.0071300000418,None,826.0071300000418,None,825.5067846999737,None,f,0.5442832000553608,826.0071300000418,None,,,,,,,d,001,2021_Jul_01_1855,toilet,2021.1.3,99.8907195579627,
180,180,4,-4,0.94,,,,,2,0,2,0,1,9,65,36,,,,,,,,,,,,,,,,,,,,,,,827.5581793000456,None,827.5581793000456,None,827.0578382000094,None,j,0.7373963000718504,827.5581793000456,None,,,,,,,d,001,2021_Jul_01_1855,toilet,2021.1.3,99.8907195579627,
180,0,4,-4,0.85,,,,,2,0,2,0,1,10,66,49,,,,,,,,,,,,,,,,,,,,,,,829.3193710000487,None,829.3193710000487,None,828.8190268999897,None,j,0.38403670000843704,829.3193710000487,None,,,,,,,d,001,2021_Jul_01_1855,toilet,2021.1.3,99.8907195579627,
180,180,-4,4,1.06,,,,,2,0,2,0,1,11,67,33,,,,,,,,,,,,,,,,,,,,,,,830.7103931000456,None,830.7103931000456,None,830.2099726999877,None,j,0.5290810998994857,830.7103931000456,None,,,,,,,d,001,2021_Jul_01_1855,toilet,2021.1.3,99.8907195579627,
0,0,-4,4,1.15,,,,,2,0,2,0,1,12,68,6,,,,,,,,,,,,,,,,,,,,,,,832.2413489000173,None,832.2413489000173,None,831.7410048999591,None,j,0.4060483999783173,832.2413489000173,None,,,,,,,d,001,2021_Jul_01_1855,toilet,2021.1.3,99.8907195579627,
0,0,4,-4,1.15,,,,,2,0,2,0,1,13,69,13,,,,,,,,,,,,,,,,,,,,,,,833.6523038999876,None,833.6523038999876,None,833.1519627999514,None,f,0.3870857999427244,833.6523038999876,None,,,,,,,d,001,2021_Jul_01_1855,toilet,2021.1.3,99.8907195579627,
180,0,-4,4,1.06,,,,,2,0,2,0,1,14,70,47,,,,,,,,,,,,,,,,,,,,,,,835.0432466999628,None,835.0432466999628,None,834.5429086000659,None,j,0.692256800015457,835.0432466999628,None,,,,,,,d,001,2021_Jul_01_1855,toilet,2021.1.3,99.8907195579627,
0,0,-4,4,1.06,,,,,2,0,2,0,1,15,71,5,,,,,,,,,,,,,,,,,,,,,,,836.7444031999912,None,836.7444031999912,None,836.2440638999688,None,j,0.4630485000088811,836.7444031999912,None,,,,,,,d,001,2021_Jul_01_1855,toilet,2021.1.3,99.8907195579627,
0,180,4,-4,1.03,,,,,2,0,2,0,1,16,72,25,,,,,,,,,,,,,,,,,,,,,,,838.2254037000239,None,838.2254037000239,None,837.7251404999988,None,f,0.534025700064376,838.2254037000239,None,,,,,,,d,001,2021_Jul_01_1855,toilet,2021.1.3,99.8907195579627,
180,0,4,-4,1.03,,,,,2,0,2,0,1,17,73,53,,,,,,,,,,,,,,,,,,,,,,,839.7764511000132,None,839.7764511000132,None,839.2760896000545,None,j,0.5029652999946848,839.7764511000132,None,,,,,,,d,001,2021_Jul_01_1855,toilet,2021.1.3,99.8907195579627,
180,0,-4,4,1.0,,,,,2,0,2,0,1,18,74,45,,,,,,,,,,,,,,,,,,,,,,,841.2874749000184,None,841.2874749000184,None,840.7871332999784,None,f,1.1999366000527516,841.2874749000184,None,,,,,,,d,001,2021_Jul_01_1855,toilet,2021.1.3,99.8907195579627,
180,180,-4,4,0.85,,,,,2,0,2,0,1,19,75,28,,,,,,,,,,,,,,,,,,,,,,,843.498970799963,None,843.498970799963,None,842.9986325000646,None,f,0.5404733000323176,843.498970799963,None,,,,,,,d,001,2021_Jul_01_1855,toilet,2021.1.3,99.8907195579627,
0,0,4,-4,1.0,,,,,2,0,2,0,1,20,76,10,,,,,,,,,,,,,,,,,,,,,,,845.0501124999719,None,845.0501124999719,None,844.5497680000262,None,j,0.5093507000710815,845.0501124999719,None,,,,,,,d,001,2021_Jul_01_1855,toilet,2021.1.3,99.8907195579627,
180,0,4,-4,0.94,,,,,2,0,2,0,1,21,77,50,,,,,,,,,,,,,,,,,,,,,,,846.5710549000651,None,846.5710549000651,None,846.0706899999641,None,j,0.5083581999642774,846.5710549000651,None,,,,,,,d,001,2021_Jul_01_1855,toilet,2021.1.3,99.8907195579627,
180,0,-4,4,1.03,,,,,2,0,2,0,1,22,78,46,,,,,,,,,,,,,,,,,,,,,,,848.0820777000627,None,848.0820777000627,None,847.58174100006,None,j,0.6133388000307605,848.0820777000627,None,,,,,,,d,001,2021_Jul_01_1855,toilet,2021.1.3,99.8907195579627,
0,180,-4,4,1.15,,,,,2,0,2,0,1,23,79,20,,,,,,,,,,,,,,,,,,,,,,,849.7031734000193,None,849.7031734000193,None,849.202841600054,None,j,0.4801979000912979,849.7031734000193,None,,,,,,,d,001,2021_Jul_01_1855,toilet,2021.1.3,99.8907195579627,
0,180,-4,4,1.06,,,,,2,0,2,0,1,24,80,19,,,,,,,,,,,,,,,,,,,,,,,851.1941850000294,None,851.1941850000294,None,850.6938473000191,None,j,0.49326980009209365,851.1941850000294,None,,,,,,,d,001,2021_Jul_01_1855,toilet,2021.1.3,99.8907195579627,
180,0,-4,4,0.97,,,,,2,0,2,0,1,25,81,44,,,,,,,,,,,,,,,,,,,,,,,852.6952803999884,None,852.6952803999884,None,852.1949423999758,None,f,0.5280350999673828,852.6952803999884,None,,,,,,,d,001,2021_Jul_01_1855,toilet,2021.1.3,99.8907195579627,
0,180,4,-4,1.15,,,,,2,0,2,0,1,26,82,27,,,,,,,,,,,,,,,,,,,,,,,854.226235399954,None,854.226235399954,None,853.7259057000047,None,f,0.4851269000209868,854.226235399954,None,,,,,,,d,001,2021_Jul_01_1855,toilet,2021.1.3,99.8907195579627,
180,180,-4,4,1.15,,,,,2,0,2,0,1,27,83,34,,,,,,,,,,,,,,,,,,,,,,,855.7172495999839,None,855.7172495999839,None,855.2169127999805,None,j,0.48211979994084686,855.7172495999839,None,,,,,,,d,001,2021_Jul_01_1855,toilet,2021.1.3,99.8907195579627,
0,180,4,-4,0.85,,,,,2,0,2,0,1,28,84,21,,,,,,,,,,,,,,,,,,,,,,,857.208259099978,None,857.208259099978,None,856.7079270000104,None,j,0.47908990003634244,857.208259099978,None,,,,,,,d,001,2021_Jul_01_1855,toilet,2021.1.3,99.8907195579627,
180,180,-4,4,1.03,,,,,2,0,2,0,1,29,85,32,,,,,,,,,,,,,,,,,,,,,,,858.6892627000343,None,858.6892627000343,None,858.1889251000248,None,j,1.5100668000523,858.6892627000343,None,,,,,,,d,001,2021_Jul_01_1855,toilet,2021.1.3,99.8907195579627,
180,180,4,-4,1.03,,,,,2,0,2,0,1,30,86,39,,,,,,,,,,,,,,,,,,,,,,,861.2009673999855,None,861.2009673999855,None,860.7005992999766,None,f,0.5024673999287188,861.2009673999855,None,,,,,,,d,001,2021_Jul_01_1855,toilet,2021.1.3,99.8907195579627,
0,0,4,-4,0.97,,,,,2,0,2,0,1,31,87,9,,,,,,,,,,,,,,,,,,,,,,,862.7120358999819,None,862.7120358999819,None,862.2116503999569,None,j,0.4313514999812469,862.7120358999819,None,,,,,,,d,001,2021_Jul_01_1855,toilet,2021.1.3,99.8907195579627,
180,0,-4,4,0.94,,,,,2,0,2,0,1,32,88,43,,,,,,,,,,,,,,,,,,,,,,,864.1429658000125,None,864.1429658000125,None,863.6426230999641,None,f,0.4245291000697762,864.1429658000125,None,,,,,,,d,001,2021_Jul_01_1855,toilet,2021.1.3,99.8907195579627,
180,180,4,-4,1.0,,,,,2,0,2,0,1,33,89,38,,,,,,,,,,,,,,,,,,,,,,,865.5939446999691,None,865.5939446999691,None,865.0935977000045,None,j,0.5094327999977395,865.5939446999691,None,,,,,,,d,001,2021_Jul_01_1855,toilet,2021.1.3,99.8907195579627,
0,0,4,-4,1.06,,,,,2,0,2,0,1,34,90,12,,,,,,,,,,,,,,,,,,,,,,,867.1150442999788,None,867.1150442999788,None,866.6147161000408,None,f,0.4924563999520615,867.1150442999788,None,,,,,,,d,001,2021_Jul_01_1855,toilet,2021.1.3,99.8907195579627,
180,0,-4,4,1.15,,,,,2,0,2,0,1,35,91,48,,,,,,,,,,,,,,,,,,,,,,,868.6259923999896,None,868.6259923999896,None,868.1256736000068,None,j,0.4373634000075981,868.6259923999896,None,,,,,,,d,001,2021_Jul_01_1855,toilet,2021.1.3,99.8907195579627,
180,180,-4,4,0.97,,,,,2,0,2,0,1,36,92,30,,,,,,,,,,,,,,,,,,,,,,,870.0669735999545,None,870.0669735999545,None,869.5666352000553,None,f,0.48430759995244443,870.0669735999545,None,,,,,,,d,001,2021_Jul_01_1855,toilet,2021.1.3,99.8907195579627,
180,180,4,-4,0.85,,,,,2,0,2,0,1,37,93,35,,,,,,,,,,,,,,,,,,,,,,,871.5579788000323,None,871.5579788000323,None,871.0576427000342,None,j,0.40148390003014356,871.5579788000323,None,,,,,,,d,001,2021_Jul_01_1855,toilet,2021.1.3,99.8907195579627,
180,0,4,-4,0.97,,,,,2,0,2,0,1,38,94,51,,,,,,,,,,,,,,,,,,,,,,,872.9689433999592,None,872.9689433999592,None,872.4685955999885,None,j,0.558382699964568,872.9689433999592,None,,,,,,,d,001,2021_Jul_01_1855,toilet,2021.1.3,99.8907195579627,
180,0,4,-4,1.15,,,,,2,0,2,0,1,39,95,55,,,,,,,,,,,,,,,,,,,,,,,874.5299939999823,None,874.5299939999823,None,874.0297383000143,None,f,0.4373548999428749,874.5299939999823,None,,,,,,,d,001,2021_Jul_01_1855,toilet,2021.1.3,99.8907195579627,
180,0,4,-4,1.06,,,,,2,0,2,0,1,40,96,54,,,,,,,,,,,,,,,,,,,,,,,875.970968700014,None,875.970968700014,None,875.4706507000374,None,f,0.5643588999519125,875.970968700014,None,,,,,,,d,001,2021_Jul_01_1855,toilet,2021.1.3,99.8907195579627,
180,180,-4,4,0.94,,,,,2,0,2,0,1,41,97,29,,,,,,,,,,,,,,,,,,,,,,,877.5420317000244,None,877.5420317000244,None,877.041694900021,None,f,0.46528970007784665,877.5420317000244,None,,,,,,,d,001,2021_Jul_01_1855,toilet,2021.1.3,99.8907195579627,
0,0,-4,4,0.94,,,,,2,0,2,0,1,42,98,1,,,,,,,,,,,,,,,,,,,,,,,879.0130268000066,None,879.0130268000066,None,878.5126654000487,None,f,0.4823664999566972,879.0130268000066,None,,,,,,,d,001,2021_Jul_01_1855,toilet,2021.1.3,99.8907195579627,
0,180,-4,4,1.0,,,,,2,0,2,0,1,43,99,17,,,,,,,,,,,,,,,,,,,,,,,880.5140417000512,None,880.5140417000512,None,880.0137141000014,None,j,0.5654298000736162,880.5140417000512,None,,,,,,,d,001,2021_Jul_01_1855,toilet,2021.1.3,99.8907195579627,
0,0,-4,4,1.0,,,,,2,0,2,0,1,44,100,3,,,,,,,,,,,,,,,,,,,,,,,882.0951868999982,None,882.0951868999982,None,881.5948528000154,None,j,0.5841687000356615,882.0951868999982,None,,,,,,,d,001,2021_Jul_01_1855,toilet,2021.1.3,99.8907195579627,
0,180,4,-4,0.97,,,,,2,0,2,0,1,45,101,23,,,,,,,,,,,,,,,,,,,,,,,883.6861930000596,None,883.6861930000596,None,883.1858593999641,None,f,1.4412807000335306,883.6861930000596,None,,,,,,,d,001,2021_Jul_01_1855,toilet,2021.1.3,99.8907195579627,
0,0,4,-4,1.03,,,,,2,0,2,0,1,46,102,11,,,,,,,,,,,,,,,,,,,,,,,886.1378593000118,None,886.1378593000118,None,885.6375135000562,None,f,0.7815326999407262,886.1378593000118,None,,,,,,,d,001,2021_Jul_01_1855,toilet,2021.1.3,99.8907195579627,
0,180,4,-4,1.06,,,,,2,0,2,0,1,47,103,26,,,,,,,,,,,,,,,,,,,,,,,887.9290677000536,None,887.9290677000536,None,887.4287316000555,None,f,0.9423510000342503,887.9290677000536,None,,,,,,,d,001,2021_Jul_01_1855,toilet,2021.1.3,99.8907195579627,
0,0,-4,4,0.97,,,,,2,0,2,0,1,48,104,2,,,,,,,,,,,,,,,,,,,,,,,889.8904028000543,None,889.8904028000543,None,889.3901557000354,None,f,1.4613139000721276,889.8904028000543,None,,,,,,,d,001,2021_Jul_01_1855,toilet,2021.1.3,99.8907195579627,
0,0,4,-4,0.94,,,,,2,0,2,0,1,49,105,8,,,,,,,,,,,,,,,,,,,,,,,892.3520635999739,None,892.3520635999739,None,891.8517268999713,None,j,0.7913528999779373,892.3520635999739,None,,,,,,,d,001,2021_Jul_01_1855,toilet,2021.1.3,99.8907195579627,
0,0,-4,4,0.85,,,,,2,0,2,0,1,50,106,0,,,,,,,,,,,,,,,,,,,,,,,894.1532848000061,None,894.1532848000061,None,893.6529574999586,None,f,0.6381490000057966,894.1532848000061,None,,,,,,,d,001,2021_Jul_01_1855,toilet,2021.1.3,99.8907195579627,
0,0,-4,4,1.03,,,,,2,0,2,0,1,51,107,4,,,,,,,,,,,,,,,,,,,,,,,895.804408099968,None,895.804408099968,None,895.3040647000307,None,j,0.5709588000318035,895.804408099968,None,,,,,,,d,001,2021_Jul_01_1855,toilet,2021.1.3,99.8907195579627,
0,180,-4,4,1.03,,,,,2,0,2,0,1,52,108,18,,,,,,,,,,,,,,,,,,,,,,,897.3855667000171,None,897.3855667000171,None,896.8851756000658,None,j,1.1657270999858156,897.3855667000171,None,,,,,,,d,001,2021_Jul_01_1855,toilet,2021.1.3,99.8907195579627,
0,180,4,-4,1.0,,,,,2,0,2,0,1,53,109,24,,,,,,,,,,,,,,,,,,,,,,,899.5569495999953,None,899.5569495999953,None,899.0566099999705,None,f,1.9065080999862403,899.5569495999953,None,,,,,,,d,001,2021_Jul_01_1855,toilet,2021.1.3,99.8907195579627,
0,180,-4,4,0.97,,,,,2,0,2,0,1,54,110,16,,,,,,,,,,,,,,,,,,,,,,,902.4889281999785,None,902.4889281999785,None,901.9885883999523,None,j,1.0705344999441877,902.4889281999785,None,,,,,,,d,001,2021_Jul_01_1855,toilet,2021.1.3,99.8907195579627,
0,180,-4,4,0.94,,,,,2,0,2,0,1,55,111,15,,,,,,,,,,,,,,,,,,,,,,,904.5704225000227,None,904.5704225000227,None,904.0701071000658,None,f,0.8768351000035182,904.5704225000227,None,,,,,,,d,001,2021_Jul_01_1855,toilet,2021.1.3,99.8907195579627,
,,,,,,,,,2,0,2,0,,,,,,,,,,,,,,,,,,,,,,,,,,,,,,,,,,,,,905.4710030000424,None,space,37.96049490000587,905.4710030000424,None,d,001,2021_Jul_01_1855,toilet,2021.1.3,99.8907195579627,
0,180,4,-4,0.94,,,,,3,0,3,0,0,0,0,22,,,,,,,,,,,,,,,,,943.4466805000557,None,space,5.184722600039095,943.4466805000557,None,949.6408748000395,None,949.6408748000395,None,949.140567000024,None,j,0.6063671000301838,949.6408748000395,None,,,,,,,d,001,2021_Jul_01_1855,toilet,2021.1.3,99.8907195579627,
0,180,-4,4,1.15,,,,,3,0,3,0,0,1,1,20,,,,,,,,,,,,,,,,,,,,,,,951.2519654000644,None,951.2519654000644,None,950.7516312999651,None,j,0.4192844000644982,951.2519654000644,None,,,,,,,d,001,2021_Jul_01_1855,toilet,2021.1.3,99.8907195579627,
180,180,4,-4,1.03,,,,,3,0,3,0,0,2,2,39,,,,,,,,,,,,,,,,,,,,,,,952.6729265999747,None,952.6729265999747,None,952.172585500055,None,f,0.5666531999595463,952.6729265999747,None,,,,,,,d,001,2021_Jul_01_1855,toilet,2021.1.3,99.8907195579627,
0,0,4,-4,1.0,,,,,3,0,3,0,0,3,3,10,,,,,,,,,,,,,,,,,,,,,,,954.2640029999893,None,954.2640029999893,None,953.7636594000505,None,f,0.6393600999144837,954.2640029999893,None,,,,,,,d,001,2021_Jul_01_1855,toilet,2021.1.3,99.8907195579627,
0,0,-4,4,0.97,,,,,3,0,3,0,0,4,4,2,,,,,,,,,,,,,,,,,,,,,,,955.9151369000319,None,955.9151369000319,None,955.4148737000069,None,f,0.6523374000098556,955.9151369000319,None,,,,,,,d,001,2021_Jul_01_1855,toilet,2021.1.3,99.8907195579627,
0,180,-4,4,0.94,,,,,3,0,3,0,0,5,5,15,,,,,,,,,,,,,,,,,,,,,,,957.586256199982,None,957.586256199982,None,957.0859157999512,None,f,1.444979300023988,957.586256199982,None,,,,,,,d,001,2021_Jul_01_1855,toilet,2021.1.3,99.8907195579627,
0,180,-4,4,0.85,,,,,3,0,3,0,0,6,6,14,,,,,,,,,,,,,,,,,,,,,,,960.0379175000126,None,960.0379175000126,None,959.5375757999718,None,f,0.5454704998992383,960.0379175000126,None,,,,,,,d,001,2021_Jul_01_1855,toilet,2021.1.3,99.8907195579627,
180,180,-4,4,0.85,,,,,3,0,3,0,0,7,7,28,,,,,,,,,,,,,,,,,,,,,,,961.5989726999542,None,961.5989726999542,None,961.098630500026,None,f,0.5203611999750137,961.5989726999542,None,,,,,,,d,001,2021_Jul_01_1855,toilet,2021.1.3,99.8907195579627,
180,180,4,-4,1.0,,,,,3,0,3,0,0,8,8,38,,,,,,,,,,,,,,,,,,,,,,,963.1200059000403,None,963.1200059000403,None,962.619751399965,None,j,1.2392313000746071,963.1200059000403,None,,,,,,,d,001,2021_Jul_01_1855,toilet,2021.1.3,99.8907195579627,
0,0,4,-4,0.97,,,,,3,0,3,0,0,9,9,9,,,,,,,,,,,,,,,,,,,,,,,965.3615190000273,None,965.3615190000273,None,964.8611846000422,None,j,0.741896599996835,965.3615190000273,None,,,,,,,d,001,2021_Jul_01_1855,toilet,2021.1.3,99.8907195579627,
180,0,4,-4,1.0,,,,,3,0,3,0,0,10,10,52,,,,,,,,,,,,,,,,,,,,,,,967.1127109000226,None,967.1127109000226,None,966.6123658999568,None,j,1.0866855001077056,967.1127109000226,None,,,,,,,d,001,2021_Jul_01_1855,toilet,2021.1.3,99.8907195579627,
180,180,4,-4,1.15,,,,,3,0,3,0,0,11,11,41,,,,,,,,,,,,,,,,,,,,,,,969.2141480999999,None,969.2141480999999,None,968.7138006000314,None,f,0.4891887000994757,969.2141480999999,None,,,,,,,d,001,2021_Jul_01_1855,toilet,2021.1.3,99.8907195579627,
0,0,-4,4,1.15,,,,,3,0,3,0,0,12,12,6,,,,,,,,,,,,,,,,,,,,,,,970.7052315999754,None,970.7052315999754,None,970.2048092000186,None,j,0.518048100057058,970.7052315999754,None,,,,,,,d,001,2021_Jul_01_1855,toilet,2021.1.3,99.8907195579627,
0,180,4,-4,1.15,,,,,3,0,3,0,0,13,13,27,,,,,,,,,,,,,,,,,,,,,,,972.2261724000564,None,972.2261724000564,None,971.725829300005,None,f,0.5010128000285476,972.2261724000564,None,,,,,,,d,001,2021_Jul_01_1855,toilet,2021.1.3,99.8907195579627,
180,0,-4,4,0.94,,,,,3,0,3,0,0,14,14,43,,,,,,,,,,,,,,,,,,,,,,,973.7271902000066,None,973.7271902000066,None,973.2268520999933,None,f,0.6480488999513909,973.7271902000066,None,,,,,,,d,001,2021_Jul_01_1855,toilet,2021.1.3,99.8907195579627,
0,180,-4,4,1.03,,,,,3,0,3,0,0,15,15,18,,,,,,,,,,,,,,,,,,,,,,,975.3783028000034,None,975.3783028000034,None,974.8779672000092,None,j,0.5650690000038594,975.3783028000034,None,,,,,,,d,001,2021_Jul_01_1855,toilet,2021.1.3,99.8907195579627,
0,0,-4,4,1.0,,,,,3,0,3,0,0,16,16,3,,,,,,,,,,,,,,,,,,,,,,,976.9693852000637,None,976.9693852000637,None,976.469049999956,None,j,0.7498194000218064,976.9693852000637,None,,,,,,,d,001,2021_Jul_01_1855,toilet,2021.1.3,99.8907195579627,
0,0,4,-4,1.06,,,,,3,0,3,0,0,17,17,12,,,,,,,,,,,,,,,,,,,,,,,978.7205868000165,None,978.7205868000165,None,978.2202719000634,None,f,0.5026342000346631,978.7205868000165,None,,,,,,,d,001,2021_Jul_01_1855,toilet,2021.1.3,99.8907195579627,
180,0,-4,4,0.85,,,,,3,0,3,0,0,18,18,42,,,,,,,,,,,,,,,,,,,,,,,980.2315902999835,None,980.2315902999835,None,979.7312540999847,None,f,0.4636983999516815,980.2315902999835,None,,,,,,,d,001,2021_Jul_01_1855,toilet,2021.1.3,99.8907195579627,
180,0,4,-4,1.06,,,,,3,0,3,0,0,19,19,54,,,,,,,,,,,,,,,,,,,,,,,981.7025903000031,None,981.7025903000031,None,981.2022521999897,None,f,1.0887653999961913,981.7025903000031,None,,,,,,,d,001,2021_Jul_01_1855,toilet,2021.1.3,99.8907195579627,
180,0,4,-4,0.94,,,,,3,0,3,0,0,20,20,50,,,,,,,,,,,,,,,,,,,,,,,983.8040145999985,None,983.8040145999985,None,983.303672799957,None,j,0.49125459999777377,983.8040145999985,None,,,,,,,d,001,2021_Jul_01_1855,toilet,2021.1.3,99.8907195579627,
0,0,-4,4,1.06,,,,,3,0,3,0,0,21,21,5,,,,,,,,,,,,,,,,,,,,,,,985.305032000062,None,985.305032000062,None,984.8047798000043,None,j,0.46235319995321333,985.305032000062,None,,,,,,,d,001,2021_Jul_01_1855,toilet,2021.1.3,99.8907195579627,
180,180,-4,4,0.97,,,,,3,0,3,0,0,22,22,30,,,,,,,,,,,,,,,,,,,,,,,986.7760239000199,None,986.7760239000199,None,986.2757646000246,None,f,0.5912192000541836,986.7760239000199,None,,,,,,,d,001,2021_Jul_01_1855,toilet,2021.1.3,99.8907195579627,
0,180,4,-4,0.97,,,,,3,0,3,0,0,23,23,23,,,,,,,,,,,,,,,,,,,,,,,988.3671039000619,None,988.3671039000619,None,987.866764800041,None,f,1.5762549999635667,988.3671039000619,None,,,,,,,d,001,2021_Jul_01_1855,toilet,2021.1.3,99.8907195579627,
0,180,4,-4,1.03,,,,,3,0,3,0,0,24,24,25,,,,,,,,,,,,,,,,,,,,,,,990.9588588000042,None,990.9588588000042,None,990.4585167999612,None,f,0.616577599896118,990.9588588000042,None,,,,,,,d,001,2021_Jul_01_1855,toilet,2021.1.3,99.8907195579627,
0,0,-4,4,1.03,,,,,3,0,3,0,0,25,25,4,,,,,,,,,,,,,,,,,,,,,,,992.5899679999566,None,992.5899679999566,None,992.089722600067,None,j,0.5534101000521332,992.5899679999566,None,,,,,,,d,001,2021_Jul_01_1855,toilet,2021.1.3,99.8907195579627,
180,180,4,-4,0.85,,,,,3,0,3,0,0,26,26,35,,,,,,,,,,,,,,,,,,,,,,,994.161028200062,None,994.161028200062,None,993.6606902000494,None,j,0.48617409996222705,994.161028200062,None,,,,,,,d,001,2021_Jul_01_1855,toilet,2021.1.3,99.8907195579627,
180,180,-4,4,1.06,,,,,3,0,3,0,0,27,27,33,,,,,,,,,,,,,,,,,,,,,,,995.6520347000333,None,995.6520347000333,None,995.1516980000306,None,j,0.9475101000862196,995.6520347000333,None,,,,,,,d,001,2021_Jul_01_1855,toilet,2021.1.3,99.8907195579627,
180,180,4,-4,0.94,,,,,3,0,3,0,0,28,28,36,,,,,,,,,,,,,,,,,,,,,,,997.6233787999954,None,997.6233787999954,None,997.123034600052,None,j,0.7359606999671087,997.6233787999954,None,,,,,,,d,001,2021_Jul_01_1855,toilet,2021.1.3,99.8907195579627,
0,0,-4,4,0.94,,,,,3,0,3,0,0,29,29,1,,,,,,,,,,,,,,,,,,,,,,,999.3845650999574,None,999.3845650999574,None,998.8842501000036,None,f,0.5427750999806449,999.3845650999574,None,,,,,,,d,001,2021_Jul_01_1855,toilet,2021.1.3,99.8907195579627,
0,0,-4,4,0.85,,,,,3,0,3,0,0,30,30,0,,,,,,,,,,,,,,,,,,,,,,,1000.945664400002,None,1000.945664400002,None,1000.4452821000014,None,f,0.5655541000887752,1000.945664400002,None,,,,,,,d,001,2021_Jul_01_1855,toilet,2021.1.3,99.8907195579627,
180,180,-4,4,0.94,,,,,3,0,3,0,0,31,31,29,,,,,,,,,,,,,,,,,,,,,,,1002.5166879000608,None,1002.5166879000608,None,1002.0163522000657,None,f,0.6586297999601811,1002.5166879000608,None,,,,,,,d,001,2021_Jul_01_1855,toilet,2021.1.3,99.8907195579627,
0,180,4,-4,1.0,,,,,3,0,3,0,0,32,32,24,,,,,,,,,,,,,,,,,,,,,,,1004.1778230000054,None,1004.1778230000054,None,1003.6874782999512,None,f,1.4134908999549225,1004.1778230000054,None,,,,,,,d,001,2021_Jul_01_1855,toilet,2021.1.3,99.8907195579627,
180,180,-4,4,1.03,,,,,3,0,3,0,0,33,33,32,,,,,,,,,,,,,,,,,,,,,,,1006.6095407999819,None,1006.6095407999819,None,1006.1091184000252,None,j,0.9338515000417829,1006.6095407999819,None,,,,,,,d,001,2021_Jul_01_1855,toilet,2021.1.3,99.8907195579627,
180,0,4,-4,0.85,,,,,3,0,3,0,0,34,34,49,,,,,,,,,,,,,,,,,,,,,,,1008.5507825999521,None,1008.5507825999521,None,1008.0605168000329,None,j,0.44848020002245903,1008.5507825999521,None,,,,,,,d,001,2021_Jul_01_1855,toilet,2021.1.3,99.8907195579627,
180,0,4,-4,0.97,,,,,3,0,3,0,0,35,35,51,,,,,,,,,,,,,,,,,,,,,,,1010.0017622000305,None,1010.0017622000305,None,1009.5014209999936,None,j,0.4534272000892088,1010.0017622000305,None,,,,,,,d,001,2021_Jul_01_1855,toilet,2021.1.3,99.8907195579627,
180,0,-4,4,1.06,,,,,3,0,3,0,0,36,36,47,,,,,,,,,,,,,,,,,,,,,,,1011.4627458000323,None,1011.4627458000323,None,1010.9624147999566,None,j,1.7443919000215828,1011.4627458000323,None,,,,,,,d,001,2021_Jul_01_1855,toilet,2021.1.3,99.8907195579627,
0,0,4,-4,0.94,,,,,3,0,3,0,0,37,37,8,,,,,,,,,,,,,,,,,,,,,,,1014.2146873000311,None,1014.2146873000311,None,1013.714274100028,None,j,0.6085498000029474,1014.2146873000311,None,,,,,,,d,001,2021_Jul_01_1855,toilet,2021.1.3,99.8907195579627,
180,0,4,-4,1.15,,,,,3,0,3,0,0,38,38,55,,,,,,,,,,,,,,,,,,,,,,,1015.8357139000436,None,1015.8357139000436,None,1015.3354080000427,None,f,0.8115623000776395,1015.8357139000436,None,,,,,,,d,001,2021_Jul_01_1855,toilet,2021.1.3,99.8907195579627,
0,0,4,-4,0.85,,,,,3,0,3,0,0,39,39,7,,,,,,,,,,,,,,,,,,,,,,,1017.6469372999854,None,1017.6469372999854,None,1017.1465996999759,None,j,0.4401958999224007,1017.6469372999854,None,,,,,,,d,001,2021_Jul_01_1855,toilet,2021.1.3,99.8907195579627,
180,180,4,-4,1.06,,,,,3,0,3,0,0,40,40,40,,,,,,,,,,,,,,,,,,,,,,,1019.0879119000165,None,1019.0879119000165,None,1018.587578900042,None,f,0.5834546000696719,1019.0879119000165,None,,,,,,,d,001,2021_Jul_01_1855,toilet,2021.1.3,99.8907195579627,
0,180,4,-4,0.85,,,,,3,0,3,0,0,41,41,21,,,,,,,,,,,,,,,,,,,,,,,1020.6889979999978,None,1020.6889979999978,None,1020.188655899954,None,j,0.43824649997986853,1020.6889979999978,None,,,,,,,d,001,2021_Jul_01_1855,toilet,2021.1.3,99.8907195579627,
0,180,-4,4,0.97,,,,,3,0,3,0,0,42,42,16,,,,,,,,,,,,,,,,,,,,,,,1022.1300106999697,None,1022.1300106999697,None,1021.6397288000444,None,f,0.6774064999772236,1022.1300106999697,None,,,,,,,d,001,2021_Jul_01_1855,toilet,2021.1.3,99.8907195579627,
0,180,-4,4,1.0,,,,,3,0,3,0,0,43,43,17,,,,,,,,,,,,,,,,,,,,,,,1023.8211231000023,None,1023.8211231000023,None,1023.3207877000095,None,j,1.2100776999723166,1023.8211231000023,None,,,,,,,d,001,2021_Jul_01_1855,toilet,2021.1.3,99.8907195579627,
180,180,4,-4,0.97,,,,,3,0,3,0,0,44,44,37,,,,,,,,,,,,,,,,,,,,,,,1026.0326383999782,None,1026.0326383999782,None,1025.5322786000324,None,j,0.6946768999332562,1026.0326383999782,None,,,,,,,d,001,2021_Jul_01_1855,toilet,2021.1.3,99.8907195579627,
180,0,4,-4,1.03,,,,,3,0,3,0,0,45,45,53,,,,,,,,,,,,,,,,,,,,,,,1027.7437750999816,None,1027.7437750999816,None,1027.2434348999523,None,f,1.5273745999438688,1027.7437750999816,None,,,,,,,d,001,2021_Jul_01_1855,toilet,2021.1.3,99.8907195579627,
180,180,-4,4,1.0,,,,,3,0,3,0,0,46,46,31,,,,,,,,,,,,,,,,,,,,,,,1030.2755886999657,None,1030.2755886999657,None,1029.7752409999957,None,f,1.1075818000826985,1030.2755886999657,None,,,,,,,d,001,2021_Jul_01_1855,toilet,2021.1.3,99.8907195579627,
180,0,-4,4,1.0,,,,,3,0,3,0,0,47,47,45,,,,,,,,,,,,,,,,,,,,,,,1032.3869242999936,None,1032.3869242999936,None,1031.8865813000593,None,f,1.4763976999092847,1032.3869242999936,None,,,,,,,d,001,2021_Jul_01_1855,toilet,2021.1.3,99.8907195579627,
0,0,4,-4,1.03,,,,,3,0,3,0,0,48,48,11,,,,,,,,,,,,,,,,,,,,,,,1034.8786104000174,None,1034.8786104000174,None,1034.3782702999888,None,f,1.1285265000769868,1034.8786104000174,None,,,,,,,d,001,2021_Jul_01_1855,toilet,2021.1.3,99.8907195579627,
180,180,-4,4,1.15,,,,,3,0,3,0,0,49,49,34,,,,,,,,,,,,,,,,,,,,,,,1037.020095600048,None,1037.020095600048,None,1036.5198062000563,None,j,0.6831739000044763,1037.020095600048,None,,,,,,,d,001,2021_Jul_01_1855,toilet,2021.1.3,99.8907195579627,
0,180,-4,4,1.06,,,,,3,0,3,0,0,50,50,19,,,,,,,,,,,,,,,,,,,,,,,1038.711210199981,None,1038.711210199981,None,1038.2108673000475,None,j,1.616097699967213,1038.711210199981,None,,,,,,,d,001,2021_Jul_01_1855,toilet,2021.1.3,99.8907195579627,
180,0,-4,4,0.97,,,,,3,0,3,0,0,51,51,44,,,,,,,,,,,,,,,,,,,,,,,1041.3529958999716,None,1041.3529958999716,None,1040.8526653000154,None,f,0.7182804000331089,1041.3529958999716,None,,,,,,,d,001,2021_Jul_01_1855,toilet,2021.1.3,99.8907195579627,
180,0,-4,4,1.03,,,,,3,0,3,0,0,52,52,46,,,,,,,,,,,,,,,,,,,,,,,1043.084169400041,None,1043.084169400041,None,1042.5838297000155,None,f,1.9790430000284687,1043.084169400041,None,,,,,,,d,001,2021_Jul_01_1855,toilet,2021.1.3,99.8907195579627,
180,0,-4,4,1.15,,,,,3,0,3,0,0,53,53,48,,,,,,,,,,,,,,,,,,,,,,,1046.0761965999845,None,1046.0761965999845,None,1045.575854200055,None,j,0.41101749998051673,1046.0761965999845,None,,,,,,,d,001,2021_Jul_01_1855,toilet,2021.1.3,99.8907195579627,
0,180,4,-4,1.06,,,,,3,0,3,0,0,54,54,26,,,,,,,,,,,,,,,,,,,,,,,1047.487152799964,None,1047.487152799964,None,1046.986813500058,None,f,0.5200443000067025,1047.487152799964,None,,,,,,,d,001,2021_Jul_01_1855,toilet,2021.1.3,99.8907195579627,
0,0,4,-4,1.15,,,,,3,0,3,0,0,55,55,13,,,,,,,,,,,,,,,,,,,,,,,1049.0182196999667,None,1049.0182196999667,None,1048.5178530999692,None,f,0.4932008000323549,1049.0182196999667,None,,,,,,,d,001,2021_Jul_01_1855,toilet,2021.1.3,99.8907195579627,
180,180,-4,4,1.03,,,,,3,0,3,0,1,0,56,32,,,,,,,,,,,,,,,,,,,,,,,1050.539228699985,None,1050.539228699985,None,1050.038876799983,None,j,0.8598943999968469,1050.539228699985,None,,,,,,,d,001,2021_Jul_01_1855,toilet,2021.1.3,99.8907195579627,
0,0,-4,4,1.15,,,,,3,0,3,0,1,1,57,6,,,,,,,,,,,,,,,,,,,,,,,1052.4104836999904,None,1052.4104836999904,None,1051.9102411000058,None,j,0.4766372999874875,1052.4104836999904,None,,,,,,,d,001,2021_Jul_01_1855,toilet,2021.1.3,99.8907195579627,
0,180,4,-4,1.0,,,,,3,0,3,0,1,2,58,24,,,,,,,,,,,,,,,,,,,,,,,1053.8914920999669,None,1053.8914920999669,None,1053.3911508000456,None,f,0.5796990999951959,1053.8914920999669,None,,,,,,,d,001,2021_Jul_01_1855,toilet,2021.1.3,99.8907195579627,
180,180,4,-4,0.97,,,,,3,0,3,0,1,3,59,37,,,,,,,,,,,,,,,,,,,,,,,1055.4725596000208,None,1055.4725596000208,None,1054.9722218000097,None,j,1.5426092999987304,1055.4725596000208,None,,,,,,,d,001,2021_Jul_01_1855,toilet,2021.1.3,99.8907195579627,
180,0,4,-4,0.85,,,,,3,0,3,0,1,4,60,49,,,,,,,,,,,,,,,,,,,,,,,1058.024374300032,None,1058.024374300032,None,1057.5239348000614,None,j,0.3670503000030294,1058.024374300032,None,,,,,,,d,001,2021_Jul_01_1855,toilet,2021.1.3,99.8907195579627,
0,180,-4,4,0.85,,,,,3,0,3,0,1,5,61,14,,,,,,,,,,,,,,,,,,,,,,,1059.4152584000258,None,1059.4152584000258,None,1058.9149289999623,None,f,0.3999673000071198,1059.4152584000258,None,,,,,,,d,001,2021_Jul_01_1855,toilet,2021.1.3,99.8907195579627,
