ori_st,ori_pr,xpos_st,xpos_pr,size,trials_3.thisRepN,trials_3.thisTrialN,trials_3.thisN,trials_3.thisIndex,trials_2.thisRepN,trials_2.thisTrialN,trials_2.thisN,trials_2.thisIndex,trials.thisRepN,trials.thisTrialN,trials.thisN,trials.thisIndex,wel_pra.started,wel_pra.stopped,resp_wel.keys,resp_wel.rt,resp_wel.started,resp_wel.stopped,standard_pra.started,standard_pra.stopped,prove_pra.started,prove_pra.stopped,fixation.started,fixation.stopped,resp_pra.keys,resp_pra.rt,resp_pra.started,resp_pra.stopped,instr.started,instr.stopped,key_resp_2.keys,key_resp_2.rt,key_resp_2.started,key_resp_2.stopped,standard.started,standard.stopped,probe.started,probe.stopped,text.started,text.stopped,resp.keys,resp.rt,resp.started,resp.stopped,text_2.started,text_2.stopped,key_resp.keys,key_resp.rt,key_resp.started,key_resp.stopped,text_3.started,text_3.stopped,key_resp_3.keys,key_resp_3.rt,key_resp_3.started,key_resp_3.stopped,participant,session,date,expName,psychopyVersion,frameRate,
,,,,,,,,,,,,,,,,,134.83061340008862,None,space,70.06610710010864,134.83061340008862,None,,,,,,,,,,,,,,,,,,,,,,,,,,,,,,,,,,,,,,,h,001,2021_Jul_04_1322,toilet,2021.1.3,99.92635420476049,
180,0,-4,4,1.15,0,0,0,14,,,,,,,,,,,,,,,205.94339090003632,None,205.94339090003632,None,205.44304960011505,None,j,1.336996299913153,205.94339090003632,None,,,,,,,,,,,,,,,,,,,,,,,,,,,,,h,001,2021_Jul_04_1322,toilet,2021.1.3,99.92635420476049,
180,0,-4,4,1.15,0,1,1,15,,,,,,,,,,,,,,,208.2849749000743,None,208.2849749000743,None,207.78472540015355,None,j,0.5314889999572188,208.2849749000743,None,,,,,,,,,,,,,,,,,,,,,,,,,,,,,h,001,2021_Jul_04_1322,toilet,2021.1.3,99.92635420476049,
0,0,-4,4,0.85,0,2,2,0,,,,,,,,,,,,,,,209.8160226000473,None,209.8160226000473,None,209.31567430007271,None,f,0.5363368999678642,209.8160226000473,None,,,,,,,,,,,,,,,,,,,,,,,,,,,,,h,001,2021_Jul_04_1322,toilet,2021.1.3,99.92635420476049,
0,180,4,-4,1.15,0,3,3,7,,,,,,,,,,,,,,,211.35706000006758,None,211.35706000006758,None,210.85673360014334,None,f,0.5794065999798477,211.35706000006758,None,,,,,,,,,,,,,,,,,,,,,,,,,,,,,h,001,2021_Jul_04_1322,toilet,2021.1.3,99.92635420476049,
180,0,-4,4,0.85,0,4,4,13,,,,,,,,,,,,,,,212.9481722000055,None,212.9481722000055,None,212.44779820018448,None,f,0.7002270999364555,212.9481722000055,None,,,,,,,,,,,,,,,,,,,,,,,,,,,,,h,001,2021_Jul_04_1322,toilet,2021.1.3,99.92635420476049,
180,0,-4,4,0.85,0,5,5,12,,,,,,,,,,,,,,,214.64938770001754,None,214.64938770001754,None,214.14902400015853,None,f,0.7110301000066102,214.64938770001754,None,,,,,,,,,,,,,,,,,,,,,,,,,,,,,h,001,2021_Jul_04_1322,toilet,2021.1.3,99.92635420476049,
180,180,-4,4,1.15,0,6,6,11,,,,,,,,,,,,,,,216.36044880002737,None,216.36044880002737,None,215.8601186000742,None,j,0.5679252999834716,216.36044880002737,None,,,,,,,,,,,,,,,,,,,,,,,,,,,,,h,001,2021_Jul_04_1322,toilet,2021.1.3,99.92635420476049,
0,180,-4,4,0.85,0,7,7,4,,,,,,,,,,,,,,,217.93153910012916,None,217.93153910012916,None,217.43117710016668,None,f,0.5010188000742346,217.93153910012916,None,,,,,,,,,,,,,,,,,,,,,,,,,,,,,h,001,2021_Jul_04_1322,toilet,2021.1.3,99.92635420476049,
180,180,-4,4,0.85,0,8,8,9,,,,,,,,,,,,,,,219.44253630004823,None,219.44253630004823,None,218.94219830003567,None,f,0.4620587001554668,219.44253630004823,None,,,,,,,,,,,,,,,,,,,,,,,,,,,,,h,001,2021_Jul_04_1322,toilet,2021.1.3,99.92635420476049,
180,180,-4,4,1.15,0,9,9,10,,,,,,,,,,,,,,,220.92361750011332,None,220.92361750011332,None,220.42320710001513,None,j,0.4050638999324292,220.92361750011332,None,,,,,,,,,,,,,,,,,,,,,,,,,,,,,h,001,2021_Jul_04_1322,toilet,2021.1.3,99.92635420476049,
180,180,-4,4,0.85,0,10,10,8,,,,,,,,,,,,,,,222.34457860002294,None,222.34457860002294,None,221.84418400004506,None,f,0.37582210008986294,222.34457860002294,None,,,,,,,,,,,,,,,,,,,,,,,,,,,,,h,001,2021_Jul_04_1322,toilet,2021.1.3,99.92635420476049,
0,180,4,-4,0.85,0,11,11,5,,,,,,,,,,,,,,,223.73547800001688,None,223.73547800001688,None,223.23506289999932,None,j,0.34492629999294877,223.73547800001688,None,,,,,,,,,,,,,,,,,,,,,,,,,,,,,h,001,2021_Jul_04_1322,toilet,2021.1.3,99.92635420476049,
0,0,4,-4,1.15,0,12,12,3,,,,,,,,,,,,,,,225.08636249997653,None,225.08636249997653,None,224.58602310018614,None,f,0.40208759997040033,225.08636249997653,None,,,,,,,,,,,,,,,,,,,,,,,,,,,,,h,001,2021_Jul_04_1322,toilet,2021.1.3,99.92635420476049,
0,180,-4,4,1.15,0,13,13,6,,,,,,,,,,,,,,,226.51732970005833,None,226.51732970005833,None,226.01699670008384,None,j,0.29906119988299906,226.51732970005833,None,,,,,,,,,,,,,,,,,,,,,,,,,,,,,h,001,2021_Jul_04_1322,toilet,2021.1.3,99.92635420476049,
0,0,-4,4,1.15,0,14,14,2,,,,,,,,,,,,,,,227.8182186000049,None,227.8182186000049,None,227.31787930009887,None,j,0.3102956998627633,227.8182186000049,None,,,,,,,,,,,,,,,,,,,,,,,,,,,,,h,001,2021_Jul_04_1322,toilet,2021.1.3,99.92635420476049,
0,0,4,-4,0.85,0,15,15,1,,,,,,,,,,,,,,,229.13910700008273,None,229.13910700008273,None,228.63884410005994,None,j,0.33322979998774827,229.13910700008273,None,,,,,,,,,,,,,,,,,,,,,,,,,,,,,h,001,2021_Jul_04_1322,toilet,2021.1.3,99.92635420476049,
0,0,-4,4,1.0,,,,,0,0,0,0,0,0,0,3,,,,,,,,,,,,,,,,,229.4893488001544,None,space,73.7749592999462,229.4893488001544,None,304.29004380013794,None,304.29004380013794,None,303.7897435000632,None,f,0.7502731999848038,304.29004380013794,None,,,,,,,,,,,,,h,001,2021_Jul_04_1322,toilet,2021.1.3,99.92635420476049,
0,0,-4,4,1.06,,,,,0,0,0,0,0,1,1,5,,,,,,,,,,,,,,,,,,,,,,,306.0412356001325,None,306.0412356001325,None,305.54089389997534,None,j,0.3750497999135405,306.0412356001325,None,,,,,,,,,,,,,h,001,2021_Jul_04_1322,toilet,2021.1.3,99.92635420476049,
0,0,-4,4,0.97,,,,,0,0,0,0,0,2,2,2,,,,,,,,,,,,,,,,,,,,,,,307.4221775000915,None,307.4221775000915,None,306.92182860011235,None,f,0.8181878998875618,307.4221775000915,None,,,,,,,,,,,,,h,001,2021_Jul_04_1322,toilet,2021.1.3,99.92635420476049,
0,180,-4,4,0.94,,,,,0,0,0,0,0,3,3,15,,,,,,,,,,,,,,,,,,,,,,,309.2534231999889,None,309.2534231999889,None,308.7530680000782,None,j,0.4108836001250893,309.2534231999889,None,,,,,,,,,,,,,h,001,2021_Jul_04_1322,toilet,2021.1.3,99.92635420476049,
0,180,4,-4,0.94,,,,,0,0,0,0,0,4,4,22,,,,,,,,,,,,,,,,,,,,,,,310.6644509001635,None,310.6644509001635,None,310.16405540006235,None,j,0.5038115999195725,310.6644509001635,None,,,,,,,,,,,,,h,001,2021_Jul_04_1322,toilet,2021.1.3,99.92635420476049,
0,0,-4,4,1.15,,,,,0,0,0,0,0,5,5,6,,,,,,,,,,,,,,,,,,,,,,,312.17538870009594,None,312.17538870009594,None,311.6750476001762,None,j,0.40094660012982786,312.17538870009594,None,,,,,,,,,,,,,h,001,2021_Jul_04_1322,toilet,2021.1.3,99.92635420476049,
0,180,-4,4,0.97,,,,,0,0,0,0,0,6,6,16,,,,,,,,,,,,,,,,,,,,,,,313.57633529999293,None,313.57633529999293,None,313.07599350018427,None,f,1.192142899846658,313.57633529999293,None,,,,,,,,,,,,,h,001,2021_Jul_04_1322,toilet,2021.1.3,99.92635420476049,
180,0,-4,4,1.03,,,,,0,0,0,0,0,7,7,46,,,,,,,,,,,,,,,,,,,,,,,315.7778284000233,None,315.7778284000233,None,315.2774921001401,None,j,0.574537499807775,315.7778284000233,None,,,,,,,,,,,,,h,001,2021_Jul_04_1322,toilet,2021.1.3,99.92635420476049,
180,180,-4,4,1.06,,,,,0,0,0,0,0,8,8,33,,,,,,,,,,,,,,,,,,,,,,,317.35899640014395,None,317.35899640014395,None,316.8586430000141,None,j,0.433503600070253,317.35899640014395,None,,,,,,,,,,,,,h,001,2021_Jul_04_1322,toilet,2021.1.3,99.92635420476049,
180,0,-4,4,1.0,,,,,0,0,0,0,0,9,9,45,,,,,,,,,,,,,,,,,,,,,,,318.80988420010544,None,318.80988420010544,None,318.3096336000599,None,f,0.5983702000230551,318.80988420010544,None,,,,,,,,,,,,,h,001,2021_Jul_04_1322,toilet,2021.1.3,99.92635420476049,
180,180,-4,4,0.85,,,,,0,0,0,0,0,10,10,28,,,,,,,,,,,,,,,,,,,,,,,320.41096630017273,None,320.41096630017273,None,319.91062880004756,None,f,0.4053037001285702,320.41096630017273,None,,,,,,,,,,,,,h,001,2021_Jul_04_1322,toilet,2021.1.3,99.92635420476049,
0,180,4,-4,0.85,,,,,0,0,0,0,0,11,11,21,,,,,,,,,,,,,,,,,,,,,,,321.83190360013396,None,321.83190360013396,None,321.33158920006827,None,j,0.392586600035429,321.83190360013396,None,,,,,,,,,,,,,h,001,2021_Jul_04_1322,toilet,2021.1.3,99.92635420476049,
0,180,-4,4,1.0,,,,,0,0,0,0,0,12,12,17,,,,,,,,,,,,,,,,,,,,,,,323.24288570019417,None,323.24288570019417,None,322.7425438000355,None,f,0.7573813998606056,323.24288570019417,None,,,,,,,,,,,,,h,001,2021_Jul_04_1322,toilet,2021.1.3,99.92635420476049,
0,180,4,-4,1.06,,,,,0,0,0,0,0,13,13,26,,,,,,,,,,,,,,,,,,,,,,,325.0041829000693,None,325.0041829000693,None,324.50384090002626,None,f,0.4200349000748247,325.0041829000693,None,,,,,,,,,,,,,h,001,2021_Jul_04_1322,toilet,2021.1.3,99.92635420476049,
180,180,-4,4,0.97,,,,,0,0,0,0,0,14,14,30,,,,,,,,,,,,,,,,,,,,,,,326.42504300014116,None,326.42504300014116,None,325.92474310006946,None,j,0.45520480000413954,326.42504300014116,None,,,,,,,,,,,,,h,001,2021_Jul_04_1322,toilet,2021.1.3,99.92635420476049,
180,0,4,-4,0.97,,,,,0,0,0,0,0,15,15,51,,,,,,,,,,,,,,,,,,,,,,,327.8860340001993,None,327.8860340001993,None,327.3856999001,None,f,3.1701750999782234,327.8860340001993,None,,,,,,,,,,,,,h,001,2021_Jul_04_1322,toilet,2021.1.3,99.92635420476049,
180,180,-4,4,1.15,,,,,0,0,0,0,0,16,16,34,,,,,,,,,,,,,,,,,,,,,,,332.0589488002006,None,332.0589488002006,None,331.5586143999826,None,j,0.4374695001170039,332.0589488002006,None,,,,,,,,,,,,,h,001,2021_Jul_04_1322,toilet,2021.1.3,99.92635420476049,
180,0,-4,4,1.15,,,,,0,0,0,0,0,17,17,48,,,,,,,,,,,,,,,,,,,,,,,333.4998410001863,None,333.4998410001863,None,333.00959779997356,None,j,0.46847970015369356,333.4998410001863,None,,,,,,,,,,,,,h,001,2021_Jul_04_1322,toilet,2021.1.3,99.92635420476049,
0,0,-4,4,0.94,,,,,0,0,0,0,0,18,18,1,,,,,,,,,,,,,,,,,,,,,,,334.9708406999707,None,334.9708406999707,None,334.47051830007695,None,f,0.46950590005144477,334.9708406999707,None,,,,,,,,,,,,,h,001,2021_Jul_04_1322,toilet,2021.1.3,99.92635420476049,
180,0,-4,4,1.06,,,,,0,0,0,0,0,19,19,47,,,,,,,,,,,,,,,,,,,,,,,336.4418395999819,None,336.4418395999819,None,335.94150060019456,None,j,0.47069139988161623,336.4418395999819,None,,,,,,,,,,,,,h,001,2021_Jul_04_1322,toilet,2021.1.3,99.92635420476049,
0,0,4,-4,0.94,,,,,0,0,0,0,0,20,20,8,,,,,,,,,,,,,,,,,,,,,,,337.9228352000937,None,337.9228352000937,None,337.42249610018916,None,j,2.253693599952385,337.9228352000937,None,,,,,,,,,,,,,h,001,2021_Jul_04_1322,toilet,2021.1.3,99.92635420476049,
180,180,4,-4,0.97,,,,,0,0,0,0,0,21,21,37,,,,,,,,,,,,,,,,,,,,,,,341.19507100014016,None,341.19507100014016,None,340.69471599999815,None,j,0.5171648000832647,341.19507100014016,None,,,,,,,,,,,,,h,001,2021_Jul_04_1322,toilet,2021.1.3,99.92635420476049,
180,0,4,-4,1.15,,,,,0,0,0,0,0,22,22,55,,,,,,,,,,,,,,,,,,,,,,,342.71608730009757,None,342.71608730009757,None,342.21574890008196,None,f,0.3883088000584394,342.71608730009757,None,,,,,,,,,,,,,h,001,2021_Jul_04_1322,toilet,2021.1.3,99.92635420476049,
180,0,4,-4,0.85,,,,,0,0,0,0,0,23,23,49,,,,,,,,,,,,,,,,,,,,,,,344.1070316999685,None,344.1070316999685,None,343.6066860000137,None,j,0.34127070009708405,344.1070316999685,None,,,,,,,,,,,,,h,001,2021_Jul_04_1322,toilet,2021.1.3,99.92635420476049,
0,180,-4,4,0.85,,,,,0,0,0,0,0,24,24,14,,,,,,,,,,,,,,,,,,,,,,,345.4479379002005,None,345.4479379002005,None,344.9475966000464,None,f,0.34444260015152395,345.4479379002005,None,,,,,,,,,,,,,h,001,2021_Jul_04_1322,toilet,2021.1.3,99.92635420476049,
0,180,-4,4,1.06,,,,,0,0,0,0,0,25,25,19,,,,,,,,,,,,,,,,,,,,,,,346.8088663001545,None,346.8088663001545,None,346.3086276000831,None,j,0.4074524000752717,346.8088663001545,None,,,,,,,,,,,,,h,001,2021_Jul_04_1322,toilet,2021.1.3,99.92635420476049,
180,0,-4,4,0.97,,,,,0,0,0,0,0,26,26,44,,,,,,,,,,,,,,,,,,,,,,,348.22982370015234,None,348.22982370015234,None,347.7295198000502,None,f,0.29840390011668205,348.22982370015234,None,,,,,,,,,,,,,h,001,2021_Jul_04_1322,toilet,2021.1.3,99.92635420476049,
0,0,4,-4,1.15,,,,,0,0,0,0,0,27,27,13,,,,,,,,,,,,,,,,,,,,,,,349.5307078000624,None,349.5307078000624,None,349.03036870015785,None,f,0.3736592000350356,349.5307078000624,None,,,,,,,,,,,,,h,001,2021_Jul_04_1322,toilet,2021.1.3,99.92635420476049,
180,0,4,-4,1.06,,,,,0,0,0,0,0,28,28,54,,,,,,,,,,,,,,,,,,,,,,,350.9116396000609,None,350.9116396000609,None,350.4113056000788,None,j,0.3365946998819709,350.9116396000609,None,,,,,,,,,,,,,h,001,2021_Jul_04_1322,toilet,2021.1.3,99.92635420476049,
0,0,-4,4,1.03,,,,,0,0,0,0,0,29,29,4,,,,,,,,,,,,,,,,,,,,,,,352.2525534001179,None,352.2525534001179,None,351.75221300008707,None,j,0.4677330998238176,352.2525534001179,None,,,,,,,,,,,,,h,001,2021_Jul_04_1322,toilet,2021.1.3,99.92635420476049,
0,0,4,-4,0.85,,,,,0,0,0,0,0,30,30,7,,,,,,,,,,,,,,,,,,,,,,,353.73364160000347,None,353.73364160000347,None,353.23321450012736,None,j,0.3947944000829011,353.73364160000347,None,,,,,,,,,,,,,h,001,2021_Jul_04_1322,toilet,2021.1.3,99.92635420476049,
0,180,4,-4,1.15,,,,,0,0,0,0,0,31,31,27,,,,,,,,,,,,,,,,,,,,,,,355.1445489001926,None,355.1445489001926,None,354.64417150011286,None,f,0.32765120011754334,355.1445489001926,None,,,,,,,,,,,,,h,001,2021_Jul_04_1322,toilet,2021.1.3,99.92635420476049,
0,0,4,-4,1.03,,,,,0,0,0,0,0,32,32,11,,,,,,,,,,,,,,,,,,,,,,,356.47543800016865,None,356.47543800016865,None,355.9750723000616,None,j,0.8687704999465495,356.47543800016865,None,,,,,,,,,,,,,h,001,2021_Jul_04_1322,toilet,2021.1.3,99.92635420476049,
180,180,4,-4,1.06,,,,,0,0,0,0,0,33,33,40,,,,,,,,,,,,,,,,,,,,,,,358.34668100019917,None,358.34668100019917,None,357.84634390007704,None,f,0.4695260999724269,358.34668100019917,None,,,,,,,,,,,,,h,001,2021_Jul_04_1322,toilet,2021.1.3,99.92635420476049,
180,0,-4,4,0.85,,,,,0,0,0,0,0,34,34,42,,,,,,,,,,,,,,,,,,,,,,,359.82768280012533,None,359.82768280012533,None,359.3273438999895,None,f,0.4128054999746382,359.82768280012533,None,,,,,,,,,,,,,h,001,2021_Jul_04_1322,toilet,2021.1.3,99.92635420476049,
0,0,4,-4,1.0,,,,,0,0,0,0,0,35,35,10,,,,,,,,,,,,,,,,,,,,,,,361.26874520001,None,361.26874520001,None,360.7683251001872,None,f,0.45950939995236695,361.26874520001,None,,,,,,,,,,,,,h,001,2021_Jul_04_1322,toilet,2021.1.3,99.92635420476049,
0,180,-4,4,1.03,,,,,0,0,0,0,0,36,36,18,,,,,,,,,,,,,,,,,,,,,,,362.7396741001867,None,362.7396741001867,None,362.23941310006194,None,j,0.9246279001235962,362.7396741001867,None,,,,,,,,,,,,,h,001,2021_Jul_04_1322,toilet,2021.1.3,99.92635420476049,
180,180,4,-4,1.15,,,,,0,0,0,0,0,37,37,41,,,,,,,,,,,,,,,,,,,,,,,364.6709684000816,None,364.6709684000816,None,364.17062610015273,None,f,0.46539629995822906,364.6709684000816,None,,,,,,,,,,,,,h,001,2021_Jul_04_1322,toilet,2021.1.3,99.92635420476049,
0,180,4,-4,1.0,,,,,0,0,0,0,0,38,38,24,,,,,,,,,,,,,,,,,,,,,,,366.1619830999989,None,366.1619830999989,None,365.6616390000563,None,j,0.8783489000052214,366.1619830999989,None,,,,,,,,,,,,,h,001,2021_Jul_04_1322,toilet,2021.1.3,99.92635420476049,
180,180,4,-4,0.94,,,,,0,0,0,0,0,39,39,36,,,,,,,,,,,,,,,,,,,,,,,368.05332830012776,None,368.05332830012776,None,367.5529910000041,None,j,0.6189608999993652,368.05332830012776,None,,,,,,,,,,,,,h,001,2021_Jul_04_1322,toilet,2021.1.3,99.92635420476049,
180,180,4,-4,1.03,,,,,0,0,0,0,0,40,40,39,,,,,,,,,,,,,,,,,,,,,,,369.6844634001609,None,369.6844634001609,None,369.18411610019393,None,f,1.6438764999620616,369.6844634001609,None,,,,,,,,,,,,,h,001,2021_Jul_04_1322,toilet,2021.1.3,99.92635420476049,
0,0,4,-4,0.97,,,,,0,0,0,0,0,41,41,9,,,,,,,,,,,,,,,,,,,,,,,372.3361611000728,None,372.3361611000728,None,371.83582460018806,None,f,0.7040500000584871,372.3361611000728,None,,,,,,,,,,,,,h,001,2021_Jul_04_1322,toilet,2021.1.3,99.92635420476049,
180,0,-4,4,0.94,,,,,0,0,0,0,0,42,42,43,,,,,,,,,,,,,,,,,,,,,,,374.047321600141,None,374.047321600141,None,373.546985700028,None,f,0.46494109998457134,374.047321600141,None,,,,,,,,,,,,,h,001,2021_Jul_04_1322,toilet,2021.1.3,99.92635420476049,
180,180,-4,4,1.03,,,,,0,0,0,0,0,43,43,32,,,,,,,,,,,,,,,,,,,,,,,375.51841630018316,None,375.51841630018316,None,375.0180099999998,None,j,0.4659110000357032,375.51841630018316,None,,,,,,,,,,,,,h,001,2021_Jul_04_1322,toilet,2021.1.3,99.92635420476049,
180,180,-4,4,1.0,,,,,0,0,0,0,0,44,44,31,,,,,,,,,,,,,,,,,,,,,,,376.9994262000546,None,376.9994262000546,None,376.499034000095,None,j,0.5048219999298453,376.9994262000546,None,,,,,,,,,,,,,h,001,2021_Jul_04_1322,toilet,2021.1.3,99.92635420476049,
180,0,4,-4,0.94,,,,,0,0,0,0,0,45,45,50,,,,,,,,,,,,,,,,,,,,,,,378.5103468000889,None,378.5103468000889,None,378.0100408999715,None,j,1.554031000006944,378.5103468000889,None,,,,,,,,,,,,,h,001,2021_Jul_04_1322,toilet,2021.1.3,99.92635420476049,
0,0,4,-4,1.06,,,,,0,0,0,0,0,46,46,12,,,,,,,,,,,,,,,,,,,,,,,381.09209590009414,None,381.09209590009414,None,380.5917557000648,None,f,0.4123076000250876,381.09209590009414,None,,,,,,,,,,,,,h,001,2021_Jul_04_1322,toilet,2021.1.3,99.92635420476049,
180,180,4,-4,0.85,,,,,0,0,0,0,0,47,47,35,,,,,,,,,,,,,,,,,,,,,,,382.5130587001331,None,382.5130587001331,None,382.0127268000506,None,j,0.41512349992990494,382.5130587001331,None,,,,,,,,,,,,,h,001,2021_Jul_04_1322,toilet,2021.1.3,99.92635420476049,
0,180,4,-4,1.03,,,,,0,0,0,0,0,48,48,25,,,,,,,,,,,,,,,,,,,,,,,383.9340632001404,None,383.9340632001404,None,383.4337893000338,None,f,0.6102919999975711,383.9340632001404,None,,,,,,,,,,,,,h,001,2021_Jul_04_1322,toilet,2021.1.3,99.92635420476049,
0,0,-4,4,0.85,,,,,0,0,0,0,0,49,49,0,,,,,,,,,,,,,,,,,,,,,,,385.55512670008466,None,385.55512670008466,None,385.054787900066,None,f,0.4771108999848366,385.55512670008466,None,,,,,,,,,,,,,h,001,2021_Jul_04_1322,toilet,2021.1.3,99.92635420476049,
0,180,-4,4,1.15,,,,,0,0,0,0,0,50,50,20,,,,,,,,,,,,,,,,,,,,,,,387.0361322001554,None,387.0361322001554,None,386.5357888001017,None,j,0.4040704001672566,387.0361322001554,None,,,,,,,,,,,,,h,001,2021_Jul_04_1322,toilet,2021.1.3,99.92635420476049,
180,180,-4,4,0.94,,,,,0,0,0,0,0,51,51,29,,,,,,,,,,,,,,,,,,,,,,,388.44708420010284,None,388.44708420010284,None,387.9467462999746,None,f,1.329214199911803,388.44708420010284,None,,,,,,,,,,,,,h,001,2021_Jul_04_1322,toilet,2021.1.3,99.92635420476049,
180,180,4,-4,1.0,,,,,0,0,0,0,0,52,52,38,,,,,,,,,,,,,,,,,,,,,,,390.7886679000221,None,390.7886679000221,None,390.2884308001958,None,j,0.5237288998905569,390.7886679000221,None,,,,,,,,,,,,,h,001,2021_Jul_04_1322,toilet,2021.1.3,99.92635420476049,
180,0,4,-4,1.03,,,,,0,0,0,0,0,53,53,53,,,,,,,,,,,,,,,,,,,,,,,392.3297177001368,None,392.3297177001368,None,391.829406300094,None,j,2.278431700076908,392.3297177001368,None,,,,,,,,,,,,,h,001,2021_Jul_04_1322,toilet,2021.1.3,99.92635420476049,
180,0,4,-4,1.0,,,,,0,0,0,0,0,54,54,52,,,,,,,,,,,,,,,,,,,,,,,395.61194139998406,None,395.61194139998406,None,395.1116027000826,None,f,1.5563306000549346,395.61194139998406,None,,,,,,,,,,,,,h,001,2021_Jul_04_1322,toilet,2021.1.3,99.92635420476049,
0,180,4,-4,0.97,,,,,0,0,0,0,0,55,55,23,,,,,,,,,,,,,,,,,,,,,,,398.1737540999893,None,398.1737540999893,None,397.6733681000769,None,j,1.3305061000864953,398.1737540999893,None,,,,,,,,,,,,,h,001,2021_Jul_04_1322,toilet,2021.1.3,99.92635420476049,
0,0,-4,4,1.03,,,,,0,0,0,0,1,0,56,4,,,,,,,,,,,,,,,,,,,,,,,400.5152889001183,None,400.5152889001183,None,400.014923900133,None,f,1.164872500114143,400.5152889001183,None,,,,,,,,,,,,,h,001,2021_Jul_04_1322,toilet,2021.1.3,99.92635420476049,
180,180,-4,4,0.94,,,,,0,0,0,0,1,1,57,29,,,,,,,,,,,,,,,,,,,,,,,402.6867313000839,None,402.6867313000839,None,402.186394300079,None,f,4.817624300019816,402.6867313000839,None,,,,,,,,,,,,,h,001,2021_Jul_04_1322,toilet,2021.1.3,99.92635420476049,
180,180,-4,4,1.03,,,,,0,0,0,0,1,2,58,32,,,,,,,,,,,,,,,,,,,,,,,408.5106860999949,None,408.5106860999949,None,408.0103703001514,None,j,1.041590000037104,408.5106860999949,None,,,,,,,,,,,,,h,001,2021_Jul_04_1322,toilet,2021.1.3,99.92635420476049,
0,180,4,-4,0.94,,,,,0,0,0,0,1,3,59,22,,,,,,,,,,,,,,,,,,,,,,,410.5620697000995,None,410.5620697000995,None,410.06173050007783,None,j,0.9580899998545647,410.5620697000995,None,,,,,,,,,,,,,h,001,2021_Jul_04_1322,toilet,2021.1.3,99.92635420476049,
180,0,-4,4,0.94,,,,,0,0,0,0,1,4,60,43,,,,,,,,,,,,,,,,,,,,,,,412.5234777000733,None,412.5234777000733,None,412.0230653001927,None,f,0.468763500219211,412.5234777000733,None,,,,,,,,,,,,,h,001,2021_Jul_04_1322,toilet,2021.1.3,99.92635420476049,
0,180,4,-4,0.97,,,,,0,0,0,0,1,5,61,23,,,,,,,,,,,,,,,,,,,,,,,414.00445230002515,None,414.00445230002515,None,413.50416490016505,None,j,2.043809900060296,414.00445230002515,None,,,,,,,,,,,,,h,001,2021_Jul_04_1322,toilet,2021.1.3,99.92635420476049,
0,180,-4,4,1.03,,,,,0,0,0,0,1,6,62,18,,,,,,,,,,,,,,,,,,,,,,,417.0564800000284,None,417.0564800000284,None,416.5561383999884,None,j,1.679766799788922,417.0564800000284,None,,,,,,,,,,,,,h,001,2021_Jul_04_1322,toilet,2021.1.3,99.92635420476049,
180,0,4,-4,0.97,,,,,0,0,0,0,1,7,63,51,,,,,,,,,,,,,,,,,,,,,,,419.74829880008474,None,419.74829880008474,None,419.247964899987,None,j,0.5399480999913067,419.74829880008474,None,,,,,,,,,,,,,h,001,2021_Jul_04_1322,toilet,2021.1.3,99.92635420476049,
180,180,4,-4,0.97,,,,,0,0,0,0,1,8,64,37,,,,,,,,,,,,,,,,,,,,,,,421.299433400156,None,421.299433400156,None,420.7991065001115,None,j,1.0687049999833107,421.299433400156,None,,,,,,,,,,,,,h,001,2021_Jul_04_1322,toilet,2021.1.3,99.92635420476049,
0,0,4,-4,1.06,,,,,0,0,0,0,1,9,65,12,,,,,,,,,,,,,,,,,,,,,,,423.37075530015863,None,423.37075530015863,None,422.8704200000502,None,f,0.5494729999918491,423.37075530015863,None,,,,,,,,,,,,,h,001,2021_Jul_04_1322,toilet,2021.1.3,99.92635420476049,
0,180,-4,4,0.85,,,,,0,0,0,0,1,10,66,14,,,,,,,,,,,,,,,,,,,,,,,424.92180710006505,None,424.92180710006505,None,424.42146430001594,None,f,0.5024619000032544,424.92180710006505,None,,,,,,,,,,,,,h,001,2021_Jul_04_1322,toilet,2021.1.3,99.92635420476049,
180,180,4,-4,1.06,,,,,0,0,0,0,1,11,67,40,,,,,,,,,,,,,,,,,,,,,,,426.45288590015844,None,426.45288590015844,None,425.95250840019435,None,f,0.859358600107953,426.45288590015844,None,,,,,,,,,,,,,h,001,2021_Jul_04_1322,toilet,2021.1.3,99.92635420476049,
180,180,4,-4,1.03,,,,,0,0,0,0,1,12,68,39,,,,,,,,,,,,,,,,,,,,,,,428.3241189001128,None,428.3241189001128,None,427.8238727999851,None,f,1.6600193998310715,428.3241189001128,None,,,,,,,,,,,,,h,001,2021_Jul_04_1322,toilet,2021.1.3,99.92635420476049,
0,0,4,-4,1.15,,,,,0,0,0,0,1,13,69,13,,,,,,,,,,,,,,,,,,,,,,,430.98592150001787,None,430.98592150001787,None,430.4855778000783,None,f,0.48622570000588894,430.98592150001787,None,,,,,,,,,,,,,h,001,2021_Jul_04_1322,toilet,2021.1.3,99.92635420476049,
0,0,-4,4,0.97,,,,,0,0,0,0,1,14,70,2,,,,,,,,,,,,,,,,,,,,,,,432.47692700009793,None,432.47692700009793,None,431.9766169001814,None,f,1.363387499935925,432.47692700009793,None,,,,,,,,,,,,,h,001,2021_Jul_04_1322,toilet,2021.1.3,99.92635420476049,
180,180,-4,4,1.15,,,,,0,0,0,0,1,15,71,34,,,,,,,,,,,,,,,,,,,,,,,434.8586409999989,None,434.8586409999989,None,434.3582780000288,None,j,0.45377450017258525,434.8586409999989,None,,,,,,,,,,,,,h,001,2021_Jul_04_1322,toilet,2021.1.3,99.92635420476049,
0,180,-4,4,0.94,,,,,0,0,0,0,1,16,72,15,,,,,,,,,,,,,,,,,,,,,,,436.32954040006734,None,436.32954040006734,None,435.829229200026,None,f,0.37459909985773265,436.32954040006734,None,,,,,,,,,,,,,h,001,2021_Jul_04_1322,toilet,2021.1.3,99.92635420476049,
0,180,4,-4,1.0,,,,,0,0,0,0,1,17,73,24,,,,,,,,,,,,,,,,,,,,,,,437.7104776999913,None,437.7104776999913,None,437.21013300004415,None,j,0.46564569999463856,437.7104776999913,None,,,,,,,,,,,,,h,001,2021_Jul_04_1322,toilet,2021.1.3,99.92635420476049,
180,0,-4,4,1.03,,,,,0,0,0,0,1,18,74,46,,,,,,,,,,,,,,,,,,,,,,,439.181472199969,None,439.181472199969,None,438.6811354001984,None,j,0.7068086999934167,439.181472199969,None,,,,,,,,,,,,,h,001,2021_Jul_04_1322,toilet,2021.1.3,99.92635420476049,
0,0,4,-4,0.94,,,,,0,0,0,0,1,19,75,8,,,,,,,,,,,,,,,,,,,,,,,440.91264750016853,None,440.91264750016853,None,440.4123047001194,None,j,0.46380420005880296,440.91264750016853,None,,,,,,,,,,,,,h,001,2021_Jul_04_1322,toilet,2021.1.3,99.92635420476049,
180,0,-4,4,1.0,,,,,0,0,0,0,1,20,76,45,,,,,,,,,,,,,,,,,,,,,,,442.40375890000723,None,442.40375890000723,None,441.90331900003366,None,f,1.0684417998418212,442.40375890000723,None,,,,,,,,,,,,,h,001,2021_Jul_04_1322,toilet,2021.1.3,99.92635420476049,
0,180,-4,4,1.15,,,,,0,0,0,0,1,21,77,20,,,,,,,,,,,,,,,,,,,,,,,444.4850663000252,None,444.4850663000252,None,443.9847260999959,None,j,0.41110659996047616,444.4850663000252,None,,,,,,,,,,,,,h,001,2021_Jul_04_1322,toilet,2021.1.3,99.92635420476049,
180,180,4,-4,0.85,,,,,0,0,0,0,1,22,78,35,,,,,,,,,,,,,,,,,,,,,,,445.8960239000153,None,445.8960239000153,None,445.39568369998597,None,j,0.4402640999760479,445.8960239000153,None,,,,,,,,,,,,,h,001,2021_Jul_04_1322,toilet,2021.1.3,99.92635420476049,
180,0,4,-4,0.94,,,,,0,0,0,0,1,23,79,50,,,,,,,,,,,,,,,,,,,,,,,447.3470082001295,None,447.3470082001295,None,446.846701100003,None,j,0.6212716998998076,447.3470082001295,None,,,,,,,,,,,,,h,001,2021_Jul_04_1322,toilet,2021.1.3,99.92635420476049,
0,0,-4,4,1.0,,,,,0,0,0,0,1,24,80,3,,,,,,,,,,,,,,,,,,,,,,,448.9781136000529,None,448.9781136000529,None,448.4777781001758,None,f,0.6380977001972497,448.9781136000529,None,,,,,,,,,,,,,h,001,2021_Jul_04_1322,toilet,2021.1.3,99.92635420476049,
0,0,-4,4,1.06,,,,,0,0,0,0,1,25,81,5,,,,,,,,,,,,,,,,,,,,,,,450.6293234000914,None,450.6293234000914,None,450.1289790000301,None,j,0.4588818000629544,450.6293234000914,None,,,,,,,,,,,,,h,001,2021_Jul_04_1322,toilet,2021.1.3,99.92635420476049,
0,0,4,-4,1.0,,,,,0,0,0,0,1,26,82,10,,,,,,,,,,,,,,,,,,,,,,,452.1002702000551,None,452.1002702000551,None,451.59989030007273,None,f,0.44397440017201006,452.1002702000551,None,,,,,,,,,,,,,h,001,2021_Jul_04_1322,toilet,2021.1.3,99.92635420476049,
0,0,4,-4,0.85,,,,,0,0,0,0,1,27,83,7,,,,,,,,,,,,,,,,,,,,,,,453.55121110007167,None,453.55121110007167,None,453.05087200016715,None,j,0.38489739992655814,453.55121110007167,None,,,,,,,,,,,,,h,001,2021_Jul_04_1322,toilet,2021.1.3,99.92635420476049,
180,0,4,-4,1.0,,,,,0,0,0,0,1,28,84,52,,,,,,,,,,,,,,,,,,,,,,,454.94215470016934,None,454.94215470016934,None,454.44181470014155,None,j,0.4021825999952853,454.94215470016934,None,,,,,,,,,,,,,h,001,2021_Jul_04_1322,toilet,2021.1.3,99.92635420476049,
180,180,-4,4,1.0,,,,,0,0,0,0,1,29,85,31,,,,,,,,,,,,,,,,,,,,,,,456.3531486999709,None,456.3531486999709,None,455.8527699999977,None,j,5.2472232999280095,456.3531486999709,None,,,,,,,,,,,,,h,001,2021_Jul_04_1322,toilet,2021.1.3,99.92635420476049,
180,0,-4,4,0.85,,,,,0,0,0,0,1,30,86,42,,,,,,,,,,,,,,,,,,,,,,,462.6273606000468,None,462.6273606000468,None,462.12702650018036,None,f,0.49295279989019036,462.6273606000468,None,,,,,,,,,,,,,h,001,2021_Jul_04_1322,toilet,2021.1.3,99.92635420476049,
180,0,4,-4,1.03,,,,,0,0,0,0,1,31,87,53,,,,,,,,,,,,,,,,,,,,,,,464.14839600003324,None,464.14839600003324,None,463.64815050014295,None,f,1.051808499963954,464.14839600003324,None,,,,,,,,,,,,,h,001,2021_Jul_04_1322,toilet,2021.1.3,99.92635420476049,
180,180,4,-4,1.0,,,,,0,0,0,0,1,32,88,38,,,,,,,,,,,,,,,,,,,,,,,466.1997901999857,None,466.1997901999857,None,465.70949190016836,None,f,0.5043468000367284,466.1997901999857,None,,,,,,,,,,,,,h,001,2021_Jul_04_1322,toilet,2021.1.3,99.92635420476049,
180,0,4,-4,0.85,,,,,0,0,0,0,1,33,89,49,,,,,,,,,,,,,,,,,,,,,,,467.71081269998103,None,467.71081269998103,None,467.2104727001861,None,j,0.46545430016703904,467.71081269998103,None,,,,,,,,,,,,,h,001,2021_Jul_04_1322,toilet,2021.1.3,99.92635420476049,
0,180,4,-4,1.06,,,,,0,0,0,0,1,34,90,26,,,,,,,,,,,,,,,,,,,,,,,469.2018203001935,None,469.2018203001935,None,468.7014835001901,None,f,2.5584064999129623,469.2018203001935,None,,,,,,,,,,,,,h,001,2021_Jul_04_1322,toilet,2021.1.3,99.92635420476049,
0,0,-4,4,1.15,,,,,0,0,0,0,1,35,91,6,,,,,,,,,,,,,,,,,,,,,,,472.774337900104,None,472.774337900104,None,472.27397740003653,None,j,0.4417985000181943,472.774337900104,None,,,,,,,,,,,,,h,001,2021_Jul_04_1322,toilet,2021.1.3,99.92635420476049,
0,0,-4,4,0.94,,,,,0,0,0,0,1,36,92,1,,,,,,,,,,,,,,,,,,,,,,,474.2152191000059,None,474.2152191000059,None,473.72488900017925,None,f,0.8089131999295205,474.2152191000059,None,,,,,,,,,,,,,h,001,2021_Jul_04_1322,toilet,2021.1.3,99.92635420476049,
0,180,4,-4,1.03,,,,,0,0,0,0,1,37,93,25,,,,,,,,,,,,,,,,,,,,,,,476.026468800148,None,476.026468800148,None,475.526106600184,None,f,0.5338671000208706,476.026468800148,None,,,,,,,,,,,,,h,001,2021_Jul_04_1322,toilet,2021.1.3,99.92635420476049,
180,0,4,-4,1.06,,,,,0,0,0,0,1,38,94,54,,,,,,,,,,,,,,,,,,,,,,,477.5875049000606,None,477.5875049000606,None,477.0871624001302,None,f,0.6048486998770386,477.5875049000606,None,,,,,,,,,,,,,h,001,2021_Jul_04_1322,toilet,2021.1.3,99.92635420476049,
180,180,-4,4,0.85,,,,,0,0,0,0,1,39,95,28,,,,,,,,,,,,,,,,,,,,,,,479.20869340002537,None,479.20869340002537,None,478.70830280007794,None,f,0.4874831000342965,479.20869340002537,None,,,,,,,,,,,,,h,001,2021_Jul_04_1322,toilet,2021.1.3,99.92635420476049,
0,180,-4,4,1.06,,,,,0,0,0,0,1,40,96,19,,,,,,,,,,,,,,,,,,,,,,,480.709619600093,None,480.709619600093,None,480.20934860012494,None,j,0.5864883000031114,480.709619600093,None,,,,,,,,,,,,,h,001,2021_Jul_04_1322,toilet,2021.1.3,99.92635420476049,
180,0,-4,4,1.15,,,,,0,0,0,0,1,41,97,48,,,,,,,,,,,,,,,,,,,,,,,482.30067300004885,None,482.30067300004885,None,481.8003611001186,None,j,0.4674092000350356,482.30067300004885,None,,,,,,,,,,,,,h,001,2021_Jul_04_1322,toilet,2021.1.3,99.92635420476049,
180,180,-4,4,1.06,,,,,0,0,0,0,1,42,98,33,,,,,,,,,,,,,,,,,,,,,,,483.77169640013017,None,483.77169640013017,None,483.2713562999852,None,j,0.4524912000633776,483.77169640013017,None,,,,,,,,,,,,,h,001,2021_Jul_04_1322,toilet,2021.1.3,99.92635420476049,
0,180,-4,4,0.97,,,,,0,0,0,0,1,43,99,16,,,,,,,,,,,,,,,,,,,,,,,485.2426930000074,None,485.2426930000074,None,484.7423793000635,None,f,0.5496374000795186,485.2426930000074,None,,,,,,,,,,,,,h,001,2021_Jul_04_1322,toilet,2021.1.3,99.92635420476049,
180,0,-4,4,0.97,,,,,0,0,0,0,1,44,100,44,,,,,,,,,,,,,,,,,,,,,,,486.81385330017656,None,486.81385330017656,None,486.3134250000585,None,j,0.7703698999248445,486.81385330017656,None,,,,,,,,,,,,,h,001,2021_Jul_04_1322,toilet,2021.1.3,99.92635420476049,
0,180,-4,4,1.0,,,,,0,0,0,0,1,45,101,17,,,,,,,,,,,,,,,,,,,,,,,488.5949693999719,None,488.5949693999719,None,488.0946297000628,None,f,1.1811772999353707,488.5949693999719,None,,,,,,,,,,,,,h,001,2021_Jul_04_1322,toilet,2021.1.3,99.92635420476049,
180,180,4,-4,1.15,,,,,0,0,0,0,1,46,102,41,,,,,,,,,,,,,,,,,,,,,,,490.7764473001007,None,490.7764473001007,None,490.27611620002426,None,f,0.5039605000056326,490.7764473001007,None,,,,,,,,,,,,,h,001,2021_Jul_04_1322,toilet,2021.1.3,99.92635420476049,
180,180,4,-4,0.94,,,,,0,0,0,0,1,47,103,36,,,,,,,,,,,,,,,,,,,,,,,492.3074851001147,None,492.3074851001147,None,491.80714300018735,None,j,0.42858710000291467,492.3074851001147,None,,,,,,,,,,,,,h,001,2021_Jul_04_1322,toilet,2021.1.3,99.92635420476049,
0,0,4,-4,1.03,,,,,0,0,0,0,1,48,104,11,,,,,,,,,,,,,,,,,,,,,,,493.7385521000251,None,493.7385521000251,None,493.23811320005916,None,f,0.4855013000778854,493.7385521000251,None,,,,,,,,,,,,,h,001,2021_Jul_04_1322,toilet,2021.1.3,99.92635420476049,
180,180,-4,4,0.97,,,,,0,0,0,0,1,49,105,30,,,,,,,,,,,,,,,,,,,,,,,495.22950520017184,None,495.22950520017184,None,494.72920940001495,None,j,0.5145775999408215,495.22950520017184,None,,,,,,,,,,,,,h,001,2021_Jul_04_1322,toilet,2021.1.3,99.92635420476049,
180,0,4,-4,1.15,,,,,0,0,0,0,1,50,106,55,,,,,,,,,,,,,,,,,,,,,,,496.75049580005,None,496.75049580005,None,496.2501617001835,None,f,0.401678399881348,496.75049580005,None,,,,,,,,,,,,,h,001,2021_Jul_04_1322,toilet,2021.1.3,99.92635420476049,
0,0,-4,4,0.85,,,,,0,0,0,0,1,51,107,0,,,,,,,,,,,,,,,,,,,,,,,498.1514445000794,None,498.1514445000794,None,497.65110610006377,None,f,0.4728375000413507,498.1514445000794,None,,,,,,,,,,,,,h,001,2021_Jul_04_1322,toilet,2021.1.3,99.92635420476049,
0,180,4,-4,0.85,,,,,0,0,0,0,1,52,108,21,,,,,,,,,,,,,,,,,,,,,,,499.6524615001399,None,499.6524615001399,None,499.15212220000103,None,j,0.37967159994877875,499.6524615001399,None,,,,,,,,,,,,,h,001,2021_Jul_04_1322,toilet,2021.1.3,99.92635420476049,
0,180,4,-4,1.15,,,,,0,0,0,0,1,53,109,27,,,,,,,,,,,,,,,,,,,,,,,501.03339520003647,None,501.03339520003647,None,500.5330994001124,None,f,0.34269570000469685,501.03339520003647,None,,,,,,,,,,,,,h,001,2021_Jul_04_1322,toilet,2021.1.3,99.92635420476049,
180,0,-4,4,1.06,,,,,0,0,0,0,1,54,110,47,,,,,,,,,,,,,,,,,,,,,,,502.38435410009697,None,502.38435410009697,None,501.8840571001638,None,j,0.31970039987936616,502.38435410009697,None,,,,,,,,,,,,,h,001,2021_Jul_04_1322,toilet,2021.1.3,99.92635420476049,
0,0,4,-4,0.97,,,,,0,0,0,0,1,55,111,9,,,,,,,,,,,,,,,,,,,,,,,503.7052093001548,None,503.7052093001548,None,503.2048717001453,None,f,0.3268484999425709,503.7052093001548,None,,,,,,,,,,,,,h,001,2021_Jul_04_1322,toilet,2021.1.3,99.92635420476049,
,,,,,,,,,0,0,0,0,,,,,,,,,,,,,,,,,,,,,,,,,,,,,,,,,,,,,504.05548089998774,None,space,1.2726783999241889,504.05548089998774,None,,,,,,,h,001,2021_Jul_04_1322,toilet,2021.1.3,99.92635420476049,
180,180,-4,4,0.85,,,,,1,0,1,0,0,0,0,28,,,,,,,,,,,,,,,,,505.356368200155,None,space,2.899763199966401,505.356368200155,None,509.2790654001292,None,509.2790654001292,None,508.7787324001547,None,f,0.4811528001446277,509.2790654001292,None,,,,,,,,,,,,,h,001,2021_Jul_04_1322,toilet,2021.1.3,99.92635420476049,
180,180,4,-4,1.06,,,,,1,0,1,0,0,1,1,40,,,,,,,,,,,,,,,,,,,,,,,510.7699963999912,None,510.7699963999912,None,510.2696603999939,None,f,0.3822888999711722,510.7699963999912,None,,,,,,,,,,,,,h,001,2021_Jul_04_1322,toilet,2021.1.3,99.92635420476049,
0,0,4,-4,1.0,,,,,1,0,1,0,0,2,2,10,,,,,,,,,,,,,,,,,,,,,,,512.160947300028,None,512.160947300028,None,511.6606026000809,None,j,0.4152561998926103,512.160947300028,None,,,,,,,,,,,,,h,001,2021_Jul_04_1322,toilet,2021.1.3,99.92635420476049,
0,0,4,-4,0.97,,,,,1,0,1,0,0,3,3,9,,,,,,,,,,,,,,,,,,,,,,,513.6019192000385,None,513.6019192000385,None,513.1015799001325,None,j,0.830246000085026,513.6019192000385,None,,,,,,,,,,,,,h,001,2021_Jul_04_1322,toilet,2021.1.3,99.92635420476049,
180,0,4,-4,1.06,,,,,1,0,1,0,0,4,4,54,,,,,,,,,,,,,,,,,,,,,,,515.4431659001857,None,515.4431659001857,None,514.9428280000575,None,j,0.4450970001053065,515.4431659001857,None,,,,,,,,,,,,,h,001,2021_Jul_04_1322,toilet,2021.1.3,99.92635420476049,
180,0,4,-4,0.85,,,,,1,0,1,0,0,5,5,49,,,,,,,,,,,,,,,,,,,,,,,516.9041572001297,None,516.9041572001297,None,516.4038991001435,None,j,0.3758882998954505,516.9041572001297,None,,,,,,,,,,,,,h,001,2021_Jul_04_1322,toilet,2021.1.3,99.92635420476049,
0,180,4,-4,1.06,,,,,1,0,1,0,0,6,6,26,,,,,,,,,,,,,,,,,,,,,,,518.2850918001495,None,518.2850918001495,None,517.7847575000487,None,f,0.38690830022096634,518.2850918001495,None,,,,,,,,,,,,,h,001,2021_Jul_04_1322,toilet,2021.1.3,99.92635420476049,
0,0,-4,4,1.0,,,,,1,0,1,0,0,7,7,3,,,,,,,,,,,,,,,,,,,,,,,519.6760351001285,None,519.6760351001285,None,519.175694799982,None,j,0.4042668999172747,519.6760351001285,None,,,,,,,,,,,,,h,001,2021_Jul_04_1322,toilet,2021.1.3,99.92635420476049,
0,0,4,-4,0.94,,,,,1,0,1,0,0,8,8,8,,,,,,,,,,,,,,,,,,,,,,,521.086994000012,None,521.086994000012,None,520.5866531000938,None,j,0.5131320999935269,521.086994000012,None,,,,,,,,,,,,,h,001,2021_Jul_04_1322,toilet,2021.1.3,99.92635420476049,
0,0,4,-4,1.06,,,,,1,0,1,0,0,9,9,12,,,,,,,,,,,,,,,,,,,,,,,522.608105600113,None,522.608105600113,None,522.1076868001837,None,f,0.3841087000910193,522.608105600113,None,,,,,,,,,,,,,h,001,2021_Jul_04_1322,toilet,2021.1.3,99.92635420476049,
180,0,-4,4,0.94,,,,,1,0,1,0,0,10,10,43,,,,,,,,,,,,,,,,,,,,,,,524.0090681000147,None,524.0090681000147,None,523.5086333001964,None,f,4.167192500084639,524.0090681000147,None,,,,,,,,,,,,,h,001,2021_Jul_04_1322,toilet,2021.1.3,99.92635420476049,
180,180,-4,4,1.15,,,,,1,0,1,0,0,11,11,34,,,,,,,,,,,,,,,,,,,,,,,529.1924876000267,None,529.1924876000267,None,528.6921483001206,None,j,0.4396362998522818,529.1924876000267,None,,,,,,,,,,,,,h,001,2021_Jul_04_1322,toilet,2021.1.3,99.92635420476049,
0,180,-4,4,0.97,,,,,1,0,1,0,0,12,12,16,,,,,,,,,,,,,,,,,,,,,,,530.6435510001611,None,530.6435510001611,None,530.1432114001364,None,f,2.0764657999388874,530.6435510001611,None,,,,,,,,,,,,,h,001,2021_Jul_04_1322,toilet,2021.1.3,99.92635420476049,
0,0,4,-4,1.15,,,,,1,0,1,0,0,13,13,13,,,,,,,,,,,,,,,,,,,,,,,533.7255586001556,None,533.7255586001556,None,533.225225900067,None,f,0.45060750003904104,533.7255586001556,None,,,,,,,,,,,,,h,001,2021_Jul_04_1322,toilet,2021.1.3,99.92635420476049,
180,0,4,-4,0.94,,,,,1,0,1,0,0,14,14,50,,,,,,,,,,,,,,,,,,,,,,,535.1765433000401,None,535.1765433000401,None,534.6762070001569,None,j,0.3754735002294183,535.1765433000401,None,,,,,,,,,,,,,h,001,2021_Jul_04_1322,toilet,2021.1.3,99.92635420476049,
0,180,4,-4,1.03,,,,,1,0,1,0,0,15,15,25,,,,,,,,,,,,,,,,,,,,,,,536.5574808001984,None,536.5574808001984,None,536.0571379000321,None,f,2.17864519986324,536.5574808001984,None,,,,,,,,,,,,,h,001,2021_Jul_04_1322,toilet,2021.1.3,99.92635420476049,
0,180,4,-4,0.85,,,,,1,0,1,0,0,16,16,21,,,,,,,,,,,,,,,,,,,,,,,539.7496438000817,None,539.7496438000817,None,539.2493430001196,None,j,0.45838289987295866,539.7496438000817,None,,,,,,,,,,,,,h,001,2021_Jul_04_1322,toilet,2021.1.3,99.92635420476049,
180,180,-4,4,0.94,,,,,1,0,1,0,0,17,17,29,,,,,,,,,,,,,,,,,,,,,,,541.2106370001566,None,541.2106370001566,None,540.7102955000009,None,f,0.7734847001265734,541.2106370001566,None,,,,,,,,,,,,,h,001,2021_Jul_04_1322,toilet,2021.1.3,99.92635420476049,
0,0,4,-4,1.03,,,,,1,0,1,0,0,18,18,11,,,,,,,,,,,,,,,,,,,,,,,542.9918380000163,None,542.9918380000163,None,542.4915033001453,None,f,1.7763388000894338,542.9918380000163,None,,,,,,,,,,,,,h,001,2021_Jul_04_1322,toilet,2021.1.3,99.92635420476049,
180,180,4,-4,1.0,,,,,1,0,1,0,0,19,19,38,,,,,,,,,,,,,,,,,,,,,,,545.7938331000041,None,545.7938331000041,None,545.2934000000823,None,j,0.7344377001281828,545.7938331000041,None,,,,,,,,,,,,,h,001,2021_Jul_04_1322,toilet,2021.1.3,99.92635420476049,
180,0,4,-4,0.97,,,,,1,0,1,0,0,20,20,51,,,,,,,,,,,,,,,,,,,,,,,547.5449260000605,None,547.5449260000605,None,547.0445875001606,None,j,0.45512859988957644,547.5449260000605,None,,,,,,,,,,,,,h,001,2021_Jul_04_1322,toilet,2021.1.3,99.92635420476049,
0,180,-4,4,1.06,,,,,1,0,1,0,0,21,21,19,,,,,,,,,,,,,,,,,,,,,,,549.0059193000197,None,549.0059193000197,None,548.5055796001107,None,j,0.5780996999237686,549.0059193000197,None,,,,,,,,,,,,,h,001,2021_Jul_04_1322,toilet,2021.1.3,99.92635420476049,
180,180,-4,4,0.97,,,,,1,0,1,0,0,22,22,30,,,,,,,,,,,,,,,,,,,,,,,550.5869895000942,None,550.5869895000942,None,550.0866249001119,None,j,2.0852791001088917,550.5869895000942,None,,,,,,,,,,,,,h,001,2021_Jul_04_1322,toilet,2021.1.3,99.92635420476049,
180,0,-4,4,0.85,,,,,1,0,1,0,0,23,23,42,,,,,,,,,,,,,,,,,,,,,,,553.689171800157,None,553.689171800157,None,553.1888232000638,None,f,0.3589141999837011,553.689171800157,None,,,,,,,,,,,,,h,001,2021_Jul_04_1322,toilet,2021.1.3,99.92635420476049,
0,180,-4,4,1.0,,,,,1,0,1,0,0,24,24,17,,,,,,,,,,,,,,,,,,,,,,,555.0600240000058,None,555.0600240000058,None,554.5596843000967,None,j,0.41198109998367727,555.0600240000058,None,,,,,,,,,,,,,h,001,2021_Jul_04_1322,toilet,2021.1.3,99.92635420476049,
180,180,4,-4,1.03,,,,,1,0,1,0,0,25,25,39,,,,,,,,,,,,,,,,,,,,,,,556.4809819001239,None,556.4809819001239,None,555.9806501001585,None,f,2.127161599928513,556.4809819001239,None,,,,,,,,,,,,,h,001,2021_Jul_04_1322,toilet,2021.1.3,99.92635420476049,
180,0,4,-4,1.0,,,,,1,0,1,0,0,26,26,52,,,,,,,,,,,,,,,,,,,,,,,559.6231888001785,None,559.6231888001785,None,559.1227818001062,None,j,0.5688034000340849,559.6231888001785,None,,,,,,,,,,,,,h,001,2021_Jul_04_1322,toilet,2021.1.3,99.92635420476049,
180,0,-4,4,1.15,,,,,1,0,1,0,0,27,27,48,,,,,,,,,,,,,,,,,,,,,,,561.1942569001112,None,561.1942569001112,None,560.6939303001855,None,j,0.4059204999357462,561.1942569001112,None,,,,,,,,,,,,,h,001,2021_Jul_04_1322,toilet,2021.1.3,99.92635420476049,
180,180,-4,4,1.06,,,,,1,0,1,0,0,28,28,33,,,,,,,,,,,,,,,,,,,,,,,562.60513310018,None,562.60513310018,None,562.1047960000578,None,j,0.5628965999931097,562.60513310018,None,,,,,,,,,,,,,h,001,2021_Jul_04_1322,toilet,2021.1.3,99.92635420476049,
0,0,4,-4,0.85,,,,,1,0,1,0,0,29,29,7,,,,,,,,,,,,,,,,,,,,,,,564.1761986000929,None,564.1761986000929,None,563.6758636001032,None,j,0.36806590016931295,564.1761986000929,None,,,,,,,,,,,,,h,001,2021_Jul_04_1322,toilet,2021.1.3,99.92635420476049,
0,180,-4,4,0.94,,,,,1,0,1,0,0,30,30,15,,,,,,,,,,,,,,,,,,,,,,,565.5571443000808,None,565.5571443000808,None,565.0567944999784,None,f,0.6350020000245422,565.5571443000808,None,,,,,,,,,,,,,h,001,2021_Jul_04_1322,toilet,2021.1.3,99.92635420476049,
0,0,-4,4,0.85,,,,,1,0,1,0,0,31,31,0,,,,,,,,,,,,,,,,,,,,,,,567.1983380999882,None,567.1983380999882,None,566.6979071001988,None,f,0.4336717000696808,567.1983380999882,None,,,,,,,,,,,,,h,001,2021_Jul_04_1322,toilet,2021.1.3,99.92635420476049,
180,180,4,-4,0.97,,,,,1,0,1,0,0,32,32,37,,,,,,,,,,,,,,,,,,,,,,,568.6393020001706,None,568.6393020001706,None,568.1389681000728,None,j,0.4486819999292493,568.6393020001706,None,,,,,,,,,,,,,h,001,2021_Jul_04_1322,toilet,2021.1.3,99.92635420476049,
180,0,-4,4,1.03,,,,,1,0,1,0,0,33,33,46,,,,,,,,,,,,,,,,,,,,,,,570.0902088000439,None,570.0902088000439,None,569.5898721001577,None,j,0.4697465000208467,570.0902088000439,None,,,,,,,,,,,,,h,001,2021_Jul_04_1322,toilet,2021.1.3,99.92635420476049,
0,180,4,-4,1.15,,,,,1,0,1,0,0,34,34,27,,,,,,,,,,,,,,,,,,,,,,,571.5612067000475,None,571.5612067000475,None,571.0608667000197,None,f,0.39098120015114546,571.5612067000475,None,,,,,,,,,,,,,h,001,2021_Jul_04_1322,toilet,2021.1.3,99.92635420476049,
180,180,4,-4,1.15,,,,,1,0,1,0,0,35,35,41,,,,,,,,,,,,,,,,,,,,,,,572.9621576000936,None,572.9621576000936,None,572.4618204999715,None,f,0.3818571998272091,572.9621576000936,None,,,,,,,,,,,,,h,001,2021_Jul_04_1322,toilet,2021.1.3,99.92635420476049,
0,180,4,-4,1.0,,,,,1,0,1,0,0,36,36,24,,,,,,,,,,,,,,,,,,,,,,,574.3531822999939,None,574.3531822999939,None,573.8527580001391,None,j,0.4628281998448074,574.3531822999939,None,,,,,,,,,,,,,h,001,2021_Jul_04_1322,toilet,2021.1.3,99.92635420476049,
180,0,-4,4,1.06,,,,,1,0,1,0,0,37,37,47,,,,,,,,,,,,,,,,,,,,,,,575.8241906000767,None,575.8241906000767,None,575.3238053000532,None,j,0.5757770000491291,575.8241906000767,None,,,,,,,,,,,,,h,001,2021_Jul_04_1322,toilet,2021.1.3,99.92635420476049,
0,180,-4,4,0.85,,,,,1,0,1,0,0,38,38,14,,,,,,,,,,,,,,,,,,,,,,,577.405157700181,None,577.405157700181,None,576.9048295000102,None,f,0.38680920004844666,577.405157700181,None,,,,,,,,,,,,,h,001,2021_Jul_04_1322,toilet,2021.1.3,99.92635420476049,
180,0,-4,4,1.0,,,,,1,0,1,0,0,39,39,45,,,,,,,,,,,,,,,,,,,,,,,578.7961146000307,None,578.7961146000307,None,578.295773900114,None,j,0.4519809999037534,578.7961146000307,None,,,,,,,,,,,,,h,001,2021_Jul_04_1322,toilet,2021.1.3,99.92635420476049,
180,180,4,-4,0.85,,,,,1,0,1,0,0,40,40,35,,,,,,,,,,,,,,,,,,,,,,,580.2671127000358,None,580.2671127000358,None,579.7667667001951,None,j,0.4689547000452876,580.2671127000358,None,,,,,,,,,,,,,h,001,2021_Jul_04_1322,toilet,2021.1.3,99.92635420476049,
0,0,-4,4,1.03,,,,,1,0,1,0,0,41,41,4,,,,,,,,,,,,,,,,,,,,,,,581.7481093001552,None,581.7481093001552,None,581.2477707001381,None,f,0.34800729993730783,581.7481093001552,None,,,,,,,,,,,,,h,001,2021_Jul_04_1322,toilet,2021.1.3,99.92635420476049,
0,0,-4,4,1.06,,,,,1,0,1,0,0,42,42,5,,,,,,,,,,,,,,,,,,,,,,,583.0991023001261,None,583.0991023001261,None,582.5987627999857,None,f,0.4050683998502791,583.0991023001261,None,,,,,,,,,,,,,h,001,2021_Jul_04_1322,toilet,2021.1.3,99.92635420476049,
0,180,4,-4,0.94,,,,,1,0,1,0,0,43,43,22,,,,,,,,,,,,,,,,,,,,,,,584.5200152001344,None,584.5200152001344,None,584.0196520001628,None,j,0.4399842000566423,584.5200152001344,None,,,,,,,,,,,,,h,001,2021_Jul_04_1322,toilet,2021.1.3,99.92635420476049,
0,0,-4,4,1.15,,,,,1,0,1,0,0,44,44,6,,,,,,,,,,,,,,,,,,,,,,,585.9609678999986,None,585.9609678999986,None,585.4606288999785,None,j,0.4391928999684751,585.9609678999986,None,,,,,,,,,,,,,h,001,2021_Jul_04_1322,toilet,2021.1.3,99.92635420476049,
180,0,4,-4,1.15,,,,,1,0,1,0,0,45,45,55,,,,,,,,,,,,,,,,,,,,,,,587.4119498999789,None,587.4119498999789,None,586.9116126999725,None,f,0.364043400157243,587.4119498999789,None,,,,,,,,,,,,,h,001,2021_Jul_04_1322,toilet,2021.1.3,99.92635420476049,
0,180,-4,4,1.03,,,,,1,0,1,0,0,46,46,18,,,,,,,,,,,,,,,,,,,,,,,588.7929736999795,None,588.7929736999795,None,588.2925509000197,None,f,0.3431677999906242,588.7929736999795,None,,,,,,,,,,,,,h,001,2021_Jul_04_1322,toilet,2021.1.3,99.92635420476049,
180,180,4,-4,0.94,,,,,1,0,1,0,0,47,47,36,,,,,,,,,,,,,,,,,,,,,,,590.1538971001282,None,590.1538971001282,None,589.6535677001812,None,j,0.4542202998418361,590.1538971001282,None,,,,,,,,,,,,,h,001,2021_Jul_04_1322,toilet,2021.1.3,99.92635420476049,
0,0,-4,4,0.97,,,,,1,0,1,0,0,48,48,2,,,,,,,,,,,,,,,,,,,,,,,591.6348153001163,None,591.6348153001163,None,591.134479700122,None,f,0.3972732999827713,591.6348153001163,None,,,,,,,,,,,,,h,001,2021_Jul_04_1322,toilet,2021.1.3,99.92635420476049,
0,0,-4,4,0.94,,,,,1,0,1,0,0,49,49,1,,,,,,,,,,,,,,,,,,,,,,,593.0357640001457,None,593.0357640001457,None,592.53540110006,None,f,0.48422329989261925,593.0357640001457,None,,,,,,,,,,,,,h,001,2021_Jul_04_1322,toilet,2021.1.3,99.92635420476049,
180,180,-4,4,1.03,,,,,1,0,1,0,0,50,50,32,,,,,,,,,,,,,,,,,,,,,,,594.5267748001497,None,594.5267748001497,None,594.0264379000291,None,j,0.4973299999255687,594.5267748001497,None,,,,,,,,,,,,,h,001,2021_Jul_04_1322,toilet,2021.1.3,99.92635420476049,
180,0,4,-4,1.03,,,,,1,0,1,0,0,51,51,53,,,,,,,,,,,,,,,,,,,,,,,596.0377981001511,None,596.0377981001511,None,595.537459900137,None,f,0.3143648998811841,596.0377981001511,None,,,,,,,,,,,,,h,001,2021_Jul_04_1322,toilet,2021.1.3,99.92635420476049,
0,180,4,-4,0.97,,,,,1,0,1,0,0,52,52,23,,,,,,,,,,,,,,,,,,,,,,,597.378785100067,None,597.378785100067,None,596.8784670999739,None,j,0.34925909992307425,597.378785100067,None,,,,,,,,,,,,,h,001,2021_Jul_04_1322,toilet,2021.1.3,99.92635420476049,
180,180,-4,4,1.0,,,,,1,0,1,0,0,53,53,31,,,,,,,,,,,,,,,,,,,,,,,598.7396331001073,None,598.7396331001073,None,598.2393257999793,None,f,0.5084337000735104,598.7396331001073,None,,,,,,,,,,,,,h,001,2021_Jul_04_1322,toilet,2021.1.3,99.92635420476049,
0,180,-4,4,1.15,,,,,1,0,1,0,0,54,54,20,,,,,,,,,,,,,,,,,,,,,,,600.2507101001684,None,600.2507101001684,None,599.7503165001981,None,j,0.4052334998268634,600.2507101001684,None,,,,,,,,,,,,,h,001,2021_Jul_04_1322,toilet,2021.1.3,99.92635420476049,
180,0,-4,4,0.97,,,,,1,0,1,0,0,55,55,44,,,,,,,,,,,,,,,,,,,,,,,601.6616111001931,None,601.6616111001931,None,601.1612717001699,None,f,0.4025153999682516,601.6616111001931,None,,,,,,,,,,,,,h,001,2021_Jul_04_1322,toilet,2021.1.3,99.92635420476049,
0,180,4,-4,1.03,,,,,1,0,1,0,1,0,56,25,,,,,,,,,,,,,,,,,,,,,,,603.0825752001256,None,603.0825752001256,None,602.5822382001206,None,f,1.717553999973461,603.0825752001256,None,,,,,,,,,,,,,h,001,2021_Jul_04_1322,toilet,2021.1.3,99.92635420476049,
180,180,-4,4,0.94,,,,,1,0,1,0,1,1,57,29,,,,,,,,,,,,,,,,,,,,,,,605.8144273001235,None,605.8144273001235,None,605.3141807001084,None,f,1.1295282999053597,605.8144273001235,None,,,,,,,,,,,,,h,001,2021_Jul_04_1322,toilet,2021.1.3,99.92635420476049,
180,0,4,-4,1.06,,,,,1,0,1,0,1,2,58,54,,,,,,,,,,,,,,,,,,,,,,,607.9458692001645,None,607.9458692001645,None,607.4455305000301,None,j,2.0061809001490474,607.9458692001645,None,,,,,,,,,,,,,h,001,2021_Jul_04_1322,toilet,2021.1.3,99.92635420476049,
180,0,-4,4,0.85,,,,,1,0,1,0,1,3,59,42,,,,,,,,,,,,,,,,,,,,,,,610.9679922000505,None,610.9679922000505,None,610.4675851999782,None,f,0.39212469989433885,610.9679922000505,None,,,,,,,,,,,,,h,001,2021_Jul_04_1322,toilet,2021.1.3,99.92635420476049,
0,0,4,-4,0.97,,,,,1,0,1,0,1,4,60,9,,,,,,,,,,,,,,,,,,,,,,,612.3789497001562,None,612.3789497001562,None,611.8785338001326,None,j,0.43706899997778237,612.3789497001562,None,,,,,,,,,,,,,h,001,2021_Jul_04_1322,toilet,2021.1.3,99.92635420476049,
0,180,4,-4,1.06,,,,,1,0,1,0,1,5,61,26,,,,,,,,,,,,,,,,,,,,,,,613.8298569000326,None,613.8298569000326,None,613.3295162001159,None,f,0.5221839000005275,613.8298569000326,None,,,,,,,,,,,,,h,001,2021_Jul_04_1322,toilet,2021.1.3,99.92635420476049,
180,0,-4,4,1.06,,,,,1,0,1,0,1,6,62,47,,,,,,,,,,,,,,,,,,,,,,,615.360897900071,None,615.360897900071,None,614.8605537000112,None,j,1.423193900147453,615.360897900071,None,,,,,,,,,,,,,h,001,2021_Jul_04_1322,toilet,2021.1.3,99.92635420476049,
180,0,4,-4,0.85,,,,,1,0,1,0,1,7,63,49,,,,,,,,,,,,,,,,,,,,,,,617.8125547000673,None,617.8125547000673,None,617.3122173000593,None,j,0.4116233999375254,617.8125547000673,None,,,,,,,,,,,,,h,001,2021_Jul_04_1322,toilet,2021.1.3,99.92635420476049,
0,0,-4,4,0.97,,,,,1,0,1,0,1,8,64,2,,,,,,,,,,,,,,,,,,,,,,,619.2335971000139,None,619.2335971000139,None,618.7331805999856,None,f,0.5903197999577969,619.2335971000139,None,,,,,,,,,,,,,h,001,2021_Jul_04_1322,toilet,2021.1.3,99.92635420476049,
180,180,4,-4,1.03,,,,,1,0,1,0,1,9,65,39,,,,,,,,,,,,,,,,,,,,,,,620.824599500047,None,620.824599500047,None,620.3242986002006,None,j,0.5193652000743896,620.824599500047,None,,,,,,,,,,,,,h,001,2021_Jul_04_1322,toilet,2021.1.3,99.92635420476049,
0,0,-4,4,1.06,,,,,1,0,1,0,1,10,66,5,,,,,,,,,,,,,,,,,,,,,,,622.3456322001293,None,622.3456322001293,None,621.8452970001381,None,j,1.1424910000059754,622.3456322001293,None,,,,,,,,,,,,,h,001,2021_Jul_04_1322,toilet,2021.1.3,99.92635420476049,
180,180,4,-4,0.85,,,,,1,0,1,0,1,11,67,35,,,,,,,,,,,,,,,,,,,,,,,624.5171046000905,None,624.5171046000905,None,624.0167657001875,None,j,0.47498399997130036,624.5171046000905,None,,,,,,,,,,,,,h,001,2021_Jul_04_1322,toilet,2021.1.3,99.92635420476049,
0,180,-4,4,1.15,,,,,1,0,1,0,1,12,68,20,,,,,,,,,,,,,,,,,,,,,,,626.0181241000537,None,626.0181241000537,None,625.5178694999777,None,j,0.5260048001073301,626.0181241000537,None,,,,,,,,,,,,,h,001,2021_Jul_04_1322,toilet,2021.1.3,99.92635420476049,
0,180,4,-4,1.0,,,,,1,0,1,0,1,13,69,24,,,,,,,,,,,,,,,,,,,,,,,627.5592002000194,None,627.5592002000194,None,627.0589235001244,None,f,0.4087586000096053,627.5592002000194,None,,,,,,,,,,,,,h,001,2021_Jul_04_1322,toilet,2021.1.3,99.92635420476049,
0,0,-4,4,1.03,,,,,1,0,1,0,1,14,70,4,,,,,,,,,,,,,,,,,,,,,,,628.9701202001888,None,628.9701202001888,None,628.4697987001855,None,j,0.48577730008400977,628.9701202001888,None,,,,,,,,,,,,,h,001,2021_Jul_04_1322,toilet,2021.1.3,99.92635420476049,
180,180,-4,4,1.15,,,,,1,0,1,0,1,15,71,34,,,,,,,,,,,,,,,,,,,,,,,630.4611308001913,None,630.4611308001913,None,629.9608038000297,None,j,0.4509944000747055,630.4611308001913,None,,,,,,,,,,,,,h,001,2021_Jul_04_1322,toilet,2021.1.3,99.92635420476049,
180,0,-4,4,1.15,,,,,1,0,1,0,1,16,72,48,,,,,,,,,,,,,,,,,,,,,,,631.9221202000044,None,631.9221202000044,None,631.4217850000132,None,j,0.685841399943456,631.9221202000044,None,,,,,,,,,,,,,h,001,2021_Jul_04_1322,toilet,2021.1.3,99.92635420476049,
0,180,-4,4,0.94,,,,,1,0,1,0,1,17,73,15,,,,,,,,,,,,,,,,,,,,,,,633.6133550000377,None,633.6133550000377,None,633.1129327001981,None,f,1.3467135999817401,633.6133550000377,None,,,,,,,,,,,,,h,001,2021_Jul_04_1322,toilet,2021.1.3,99.92635420476049,
180,0,4,-4,1.0,,,,,1,0,1,0,1,18,74,52,,,,,,,,,,,,,,,,,,,,,,,635.9748705001548,None,635.9748705001548,None,635.4745298000053,None,f,6.121054999995977,635.9748705001548,None,,,,,,,,,,,,,h,001,2021_Jul_04_1322,toilet,2021.1.3,99.92635420476049,
180,180,-4,4,1.06,,,,,1,0,1,0,1,19,75,33,,,,,,,,,,,,,,,,,,,,,,,643.1097043000627,None,643.1097043000627,None,642.6093862000853,None,j,0.5542311000172049,643.1097043000627,None,,,,,,,,,,,,,h,001,2021_Jul_04_1322,toilet,2021.1.3,99.92635420476049,
0,180,4,-4,0.85,,,,,1,0,1,0,1,20,76,21,,,,,,,,,,,,,,,,,,,,,,,644.6707626001444,None,644.6707626001444,None,644.1704275000375,None,j,0.4333523998502642,644.6707626001444,None,,,,,,,,,,,,,h,001,2021_Jul_04_1322,toilet,2021.1.3,99.92635420476049,
180,0,4,-4,1.15,,,,,1,0,1,0,1,21,77,55,,,,,,,,,,,,,,,,,,,,,,,646.1317618000321,None,646.1317618000321,None,645.6314101000316,None,f,0.49234779994003475,646.1317618000321,None,,,,,,,,,,,,,h,001,2021_Jul_04_1322,toilet,2021.1.3,99.92635420476049,
180,180,-4,4,0.85,,,,,1,0,1,0,1,22,78,28,,,,,,,,,,,,,,,,,,,,,,,647.6527843000367,None,647.6527843000367,None,647.152444700012,None,f,0.47530490020290017,647.6527843000367,None,,,,,,,,,,,,,h,001,2021_Jul_04_1322,toilet,2021.1.3,99.92635420476049,
0,0,4,-4,1.03,,,,,1,0,1,0,1,23,79,11,,,,,,,,,,,,,,,,,,,,,,,649.143894799985,None,649.143894799985,None,648.6435314000119,None,f,1.9760706999804825,649.143894799985,None,,,,,,,,,,,,,h,001,2021_Jul_04_1322,toilet,2021.1.3,99.92635420476049,
180,0,-4,4,1.03,,,,,1,0,1,0,1,24,80,46,,,,,,,,,,,,,,,,,,,,,,,652.1258140001446,None,652.1258140001446,None,651.6254766001366,None,j,0.466327799949795,652.1258140001446,None,,,,,,,,,,,,,h,001,2021_Jul_04_1322,toilet,2021.1.3,99.92635420476049,
0,180,-4,4,0.97,,,,,1,0,1,0,1,25,81,16,,,,,,,,,,,,,,,,,,,,,,,653.6168283000588,None,653.6168283000588,None,653.1164849000052,None,j,0.4793002000078559,653.6168283000588,None,,,,,,,,,,,,,h,001,2021_Jul_04_1322,toilet,2021.1.3,99.92635420476049,
0,0,4,-4,0.94,,,,,1,0,1,0,1,26,82,8,,,,,,,,,,,,,,,,,,,,,,,655.1078381000552,None,655.1078381000552,None,654.6075012001675,None,j,0.6520664000418037,655.1078381000552,None,,,,,,,,,,,,,h,001,2021_Jul_04_1322,toilet,2021.1.3,99.92635420476049,
180,180,4,-4,1.15,,,,,1,0,1,0,1,27,83,41,,,,,,,,,,,,,,,,,,,,,,,656.7690555001609,None,656.7690555001609,None,656.2687038001604,None,f,0.4468612999189645,656.7690555001609,None,,,,,,,,,,,,,h,001,2021_Jul_04_1322,toilet,2021.1.3,99.92635420476049,
0,180,-4,4,1.0,,,,,1,0,1,0,1,28,84,17,,,,,,,,,,,,,,,,,,,,,,,658.2199483001605,None,658.2199483001605,None,657.719611100154,None,j,1.5559485000558197,658.2199483001605,None,,,,,,,,,,,,,h,001,2021_Jul_04_1322,toilet,2021.1.3,99.92635420476049,
0,180,4,-4,0.94,,,,,1,0,1,0,1,29,85,22,,,,,,,,,,,,,,,,,,,,,,,660.7816854000557,None,660.7816854000557,None,660.281344700139,None,j,0.4664700999855995,660.7816854000557,None,,,,,,,,,,,,,h,001,2021_Jul_04_1322,toilet,2021.1.3,99.92635420476049,
180,180,4,-4,1.06,,,,,1,0,1,0,1,30,86,40,,,,,,,,,,,,,,,,,,,,,,,662.2626914000139,None,662.2626914000139,None,661.7623474001884,None,f,0.5854324998799711,662.2626914000139,None,,,,,,,,,,,,,h,001,2021_Jul_04_1322,toilet,2021.1.3,99.92635420476049,
180,0,4,-4,0.97,,,,,1,0,1,0,1,31,87,51,,,,,,,,,,,,,,,,,,,,,,,663.8638557000086,None,663.8638557000086,None,663.3635203000158,None,j,0.536296600010246,663.8638557000086,None,,,,,,,,,,,,,h,001,2021_Jul_04_1322,toilet,2021.1.3,99.92635420476049,
180,180,-4,4,0.97,,,,,1,0,1,0,1,32,88,30,,,,,,,,,,,,,,,,,,,,,,,665.4148266999982,None,665.4148266999982,None,664.914486899972,None,j,1.753081299830228,665.4148266999982,None,,,,,,,,,,,,,h,001,2021_Jul_04_1322,toilet,2021.1.3,99.92635420476049,
180,180,-4,4,1.03,,,,,1,0,1,0,1,33,89,32,,,,,,,,,,,,,,,,,,,,,,,668.176700200187,None,668.176700200187,None,667.6763627000619,None,j,0.4791999999433756,668.176700200187,None,,,,,,,,,,,,,h,001,2021_Jul_04_1322,toilet,2021.1.3,99.92635420476049,
180,0,-4,4,0.94,,,,,1,0,1,0,1,34,90,43,,,,,,,,,,,,,,,,,,,,,,,669.6576990999747,None,669.6576990999747,None,669.1573634999804,None,f,0.42258390015922487,669.6576990999747,None,,,,,,,,,,,,,h,001,2021_Jul_04_1322,toilet,2021.1.3,99.92635420476049,
0,0,-4,4,0.85,,,,,1,0,1,0,1,35,91,0,,,,,,,,,,,,,,,,,,,,,,,671.108773900196,None,671.108773900196,None,670.6084298000205,None,f,0.411432099994272,671.108773900196,None,,,,,,,,,,,,,h,001,2021_Jul_04_1322,toilet,2021.1.3,99.92635420476049,
0,0,4,-4,0.85,,,,,1,0,1,0,1,36,92,7,,,,,,,,,,,,,,,,,,,,,,,672.5296521000564,None,672.5296521000564,None,672.029303500196,None,j,0.4463871999178082,672.5296521000564,None,,,,,,,,,,,,,h,001,2021_Jul_04_1322,toilet,2021.1.3,99.92635420476049,
0,0,4,-4,1.15,,,,,1,0,1,0,1,37,93,13,,,,,,,,,,,,,,,,,,,,,,,673.9806310001295,None,673.9806310001295,None,673.480288100196,None,f,0.3872547000646591,673.9806310001295,None,,,,,,,,,,,,,h,001,2021_Jul_04_1322,toilet,2021.1.3,99.92635420476049,
180,180,4,-4,0.97,,,,,1,0,1,0,1,38,94,37,,,,,,,,,,,,,,,,,,,,,,,675.3715663000476,None,675.3715663000476,None,674.8712334001902,None,j,0.4684311000164598,675.3715663000476,None,,,,,,,,,,,,,h,001,2021_Jul_04_1322,toilet,2021.1.3,99.92635420476049,
0,180,-4,4,1.06,,,,,1,0,1,0,1,39,95,19,,,,,,,,,,,,,,,,,,,,,,,676.8426211001351,None,676.8426211001351,None,676.3422309001908,None,j,0.38945469981990755,676.8426211001351,None,,,,,,,,,,,,,h,001,2021_Jul_04_1322,toilet,2021.1.3,99.92635420476049,
180,180,4,-4,1.0,,,,,1,0,1,0,1,40,96,38,,,,,,,,,,,,,,,,,,,,,,,678.2435990001541,None,678.2435990001541,None,677.7431819001213,None,f,0.3802511999383569,678.2435990001541,None,,,,,,,,,,,,,h,001,2021_Jul_04_1322,toilet,2021.1.3,99.92635420476049,
180,0,-4,4,0.97,,,,,1,0,1,0,1,41,97,44,,,,,,,,,,,,,,,,,,,,,,,679.6244650001172,None,679.6244650001172,None,679.1241552000865,None,j,1.4635170998517424,679.6244650001172,None,,,,,,,,,,,,,h,001,2021_Jul_04_1322,toilet,2021.1.3,99.92635420476049,
0,0,-4,4,1.0,,,,,1,0,1,0,1,42,98,3,,,,,,,,,,,,,,,,,,,,,,,682.0961323000956,None,682.0961323000956,None,681.5957957999781,None,f,2.1118534000124782,682.0961323000956,None,,,,,,,,,,,,,h,001,2021_Jul_04_1322,toilet,2021.1.3,99.92635420476049,
0,180,4,-4,1.15,,,,,1,0,1,0,1,43,99,27,,,,,,,,,,,,,,,,,,,,,,,685.2183378001209,None,685.2183378001209,None,684.7179078001063,None,f,2.8616368998773396,685.2183378001209,None,,,,,,,,,,,,,h,001,2021_Jul_04_1322,toilet,2021.1.3,99.92635420476049,
180,180,4,-4,0.94,,,,,1,0,1,0,1,44,100,36,,,,,,,,,,,,,,,,,,,,,,,689.0808679000475,None,689.0808679000475,None,688.5805152000394,None,j,0.4550120001658797,689.0808679000475,None,,,,,,,,,,,,,h,001,2021_Jul_04_1322,toilet,2021.1.3,99.92635420476049,
0,0,-4,4,0.94,,,,,1,0,1,0,1,45,101,1,,,,,,,,,,,,,,,,,,,,,,,690.541858300101,None,690.541858300101,None,690.0415191000793,None,f,0.5782327000051737,690.541858300101,None,,,,,,,,,,,,,h,001,2021_Jul_04_1322,toilet,2021.1.3,99.92635420476049,
0,180,4,-4,0.97,,,,,1,0,1,0,1,46,102,23,,,,,,,,,,,,,,,,,,,,,,,692.1330273000058,None,692.1330273000058,None,691.6325954999775,None,j,0.5710267000831664,692.1330273000058,None,,,,,,,,,,,,,h,001,2021_Jul_04_1322,toilet,2021.1.3,99.92635420476049,
180,0,4,-4,0.94,,,,,1,0,1,0,1,47,103,50,,,,,,,,,,,,,,,,,,,,,,,693.7139870000537,None,693.7139870000537,None,693.2137647001073,None,j,0.4458792000077665,693.7139870000537,None,,,,,,,,,,,,,h,001,2021_Jul_04_1322,toilet,2021.1.3,99.92635420476049,
0,0,4,-4,1.0,,,,,1,0,1,0,1,48,104,10,,,,,,,,,,,,,,,,,,,,,,,695.1650041001849,None,695.1650041001849,None,694.6646519000642,None,j,0.9309715998824686,695.1650041001849,None,,,,,,,,,,,,,h,001,2021_Jul_04_1322,toilet,2021.1.3,99.92635420476049,
0,180,-4,4,1.03,,,,,1,0,1,0,1,49,105,18,,,,,,,,,,,,,,,,,,,,,,,697.0962990000844,None,697.0962990000844,None,696.5959588000551,None,j,0.42384810000658035,697.0962990000844,None,,,,,,,,,,,,,h,001,2021_Jul_04_1322,toilet,2021.1.3,99.92635420476049,
0,0,-4,4,1.15,,,,,1,0,1,0,1,50,106,6,,,,,,,,,,,,,,,,,,,,,,,698.5472803001758,None,698.5472803001758,None,698.0469494999852,None,j,0.41265129996463656,698.5472803001758,None,,,,,,,,,,,,,h,001,2021_Jul_04_1322,toilet,2021.1.3,99.92635420476049,
0,180,-4,4,0.85,,,,,1,0,1,0,1,51,107,14,,,,,,,,,,,,,,,,,,,,,,,699.9683260000311,None,699.9683260000311,None,699.467910700012,None,f,0.35184659995138645,699.9683260000311,None,,,,,,,,,,,,,h,001,2021_Jul_04_1322,toilet,2021.1.3,99.92635420476049,
180,180,-4,4,1.0,,,,,1,0,1,0,1,52,108,31,,,,,,,,,,,,,,,,,,,,,,,701.3392134001479,None,701.3392134001479,None,700.8388677001931,None,j,0.4367639999836683,701.3392134001479,None,,,,,,,,,,,,,h,001,2021_Jul_04_1322,toilet,2021.1.3,99.92635420476049,
180,0,4,-4,1.03,,,,,1,0,1,0,1,53,109,53,,,,,,,,,,,,,,,,,,,,,,,702.7801529001445,None,702.7801529001445,None,702.2798132000025,None,j,0.49970309995114803,702.7801529001445,None,,,,,,,,,,,,,h,001,2021_Jul_04_1322,toilet,2021.1.3,99.92635420476049,
0,0,4,-4,1.06,,,,,1,0,1,0,1,54,110,12,,,,,,,,,,,,,,,,,,,,,,,704.2811692000832,None,704.2811692000832,None,703.7808348000981,None,f,0.6466743999626487,704.2811692000832,None,,,,,,,,,,,,,h,001,2021_Jul_04_1322,toilet,2021.1.3,99.92635420476049,
180,0,-4,4,1.0,,,,,1,0,1,0,1,55,111,45,,,,,,,,,,,,,,,,,,,,,,,705.9322864999995,None,705.9322864999995,None,705.4319470000919,None,j,0.6116810000967234,705.9322864999995,None,,,,,,,,,,,,,h,001,2021_Jul_04_1322,toilet,2021.1.3,99.92635420476049,
,,,,,,,,,1,0,1,0,,,,,,,,,,,,,,,,,,,,,,,,,,,,,,,,,,,,,706.56276910007,None,space,1.1173286000266671,706.56276910007,None,,,,,,,h,001,2021_Jul_04_1322,toilet,2021.1.3,99.92635420476049,
0,0,-4,4,1.15,,,,,2,0,2,0,0,0,0,6,,,,,,,,,,,,,,,,,707.7035444001667,None,space,62.88854610011913,707.7035444001667,None,771.6168077001348,None,771.6168077001348,None,771.1164741001558,None,j,0.5111799999140203,771.6168077001348,None,,,,,,,,,,,,,h,001,2021_Jul_04_1322,toilet,2021.1.3,99.92635420476049,
0,180,-4,4,1.06,,,,,2,0,2,0,0,1,1,19,,,,,,,,,,,,,,,,,,,,,,,773.1378395000938,None,773.1378395000938,None,772.6375080000143,None,j,0.4300279999151826,773.1378395000938,None,,,,,,,,,,,,,h,001,2021_Jul_04_1322,toilet,2021.1.3,99.92635420476049,
180,180,4,-4,1.0,,,,,2,0,2,0,0,2,2,38,,,,,,,,,,,,,,,,,,,,,,,774.5788982000668,None,774.5788982000668,None,774.0785743000451,None,f,1.2769114000257105,774.5788982000668,None,,,,,,,,,,,,,h,001,2021_Jul_04_1322,toilet,2021.1.3,99.92635420476049,
0,0,4,-4,0.94,,,,,2,0,2,0,0,3,3,8,,,,,,,,,,,,,,,,,,,,,,,776.8603766001761,None,776.8603766001761,None,776.3600379000418,None,j,0.45146250003017485,776.8603766001761,None,,,,,,,,,,,,,h,001,2021_Jul_04_1322,toilet,2021.1.3,99.92635420476049,
0,180,4,-4,0.97,,,,,2,0,2,0,0,4,4,23,,,,,,,,,,,,,,,,,,,,,,,778.3113520999905,None,778.3113520999905,None,777.8110184001271,None,j,0.4405339998193085,778.3113520999905,None,,,,,,,,,,,,,h,001,2021_Jul_04_1322,toilet,2021.1.3,99.92635420476049,
0,0,4,-4,1.03,,,,,2,0,2,0,0,5,5,11,,,,,,,,,,,,,,,,,,,,,,,779.7523239001166,None,779.7523239001166,None,779.2619906000327,None,f,0.2956301998347044,779.7523239001166,None,,,,,,,,,,,,,h,001,2021_Jul_04_1322,toilet,2021.1.3,99.92635420476049,
0,0,4,-4,1.15,,,,,2,0,2,0,0,6,6,13,,,,,,,,,,,,,,,,,,,,,,,781.0633013001643,None,781.0633013001643,None,780.5629545999691,None,f,0.3767363999504596,781.0633013001643,None,,,,,,,,,,,,,h,001,2021_Jul_04_1322,toilet,2021.1.3,99.92635420476049,
180,180,4,-4,0.97,,,,,2,0,2,0,0,7,7,37,,,,,,,,,,,,,,,,,,,,,,,782.4541731001809,None,782.4541731001809,None,781.953817000147,None,j,0.8895708001218736,782.4541731001809,None,,,,,,,,,,,,,h,001,2021_Jul_04_1322,toilet,2021.1.3,99.92635420476049,
180,180,-4,4,1.06,,,,,2,0,2,0,0,8,8,33,,,,,,,,,,,,,,,,,,,,,,,784.3454417001922,None,784.3454417001922,None,783.8451013001613,None,j,0.39048629999160767,784.3454417001922,None,,,,,,,,,,,,,h,001,2021_Jul_04_1322,toilet,2021.1.3,99.92635420476049,
0,180,4,-4,0.94,,,,,2,0,2,0,0,9,9,22,,,,,,,,,,,,,,,,,,,,,,,785.7463889000937,None,785.7463889000937,None,785.2460464001633,None,j,0.4615615999791771,785.7463889000937,None,,,,,,,,,,,,,h,001,2021_Jul_04_1322,toilet,2021.1.3,99.92635420476049,
180,0,4,-4,1.06,,,,,2,0,2,0,0,10,10,54,,,,,,,,,,,,,,,,,,,,,,,787.2173828000668,None,787.2173828000668,None,786.717045500176,None,j,0.38266950007528067,787.2173828000668,None,,,,,,,,,,,,,h,001,2021_Jul_04_1322,toilet,2021.1.3,99.92635420476049,
0,0,-4,4,0.94,,,,,2,0,2,0,0,11,11,1,,,,,,,,,,,,,,,,,,,,,,,788.6184107000008,None,788.6184107000008,None,788.1180363001768,None,f,0.5014641999732703,788.6184107000008,None,,,,,,,,,,,,,h,001,2021_Jul_04_1322,toilet,2021.1.3,99.92635420476049,
180,180,4,-4,1.03,,,,,2,0,2,0,0,12,12,39,,,,,,,,,,,,,,,,,,,,,,,790.12935380009,None,790.12935380009,None,789.6291071001906,None,f,0.9425095999613404,790.12935380009,None,,,,,,,,,,,,,h,001,2021_Jul_04_1322,toilet,2021.1.3,99.92635420476049,
0,0,-4,4,0.97,,,,,2,0,2,0,0,13,13,2,,,,,,,,,,,,,,,,,,,,,,,792.0806821000297,None,792.0806821000297,None,791.5803412999958,None,j,0.3512645000591874,792.0806821000297,None,,,,,,,,,,,,,h,001,2021_Jul_04_1322,toilet,2021.1.3,99.92635420476049,
0,180,4,-4,1.06,,,,,2,0,2,0,0,14,14,26,,,,,,,,,,,,,,,,,,,,,,,793.4315955999773,None,793.4315955999773,None,792.9312961001415,None,f,0.40831209998577833,793.4315955999773,None,,,,,,,,,,,,,h,001,2021_Jul_04_1322,toilet,2021.1.3,99.92635420476049,
0,180,4,-4,1.03,,,,,2,0,2,0,0,15,15,25,,,,,,,,,,,,,,,,,,,,,,,794.862575000152,None,794.862575000152,None,794.3622266000602,None,f,0.46535379998385906,794.862575000152,None,,,,,,,,,,,,,h,001,2021_Jul_04_1322,toilet,2021.1.3,99.92635420476049,
180,0,4,-4,0.85,,,,,2,0,2,0,0,16,16,49,,,,,,,,,,,,,,,,,,,,,,,796.343567200005,None,796.343567200005,None,795.8433236000128,None,j,0.4082791998516768,796.343567200005,None,,,,,,,,,,,,,h,001,2021_Jul_04_1322,toilet,2021.1.3,99.92635420476049,
0,0,-4,4,1.06,,,,,2,0,2,0,0,17,17,5,,,,,,,,,,,,,,,,,,,,,,,797.7645314000547,None,797.7645314000547,None,797.2641954000574,None,j,1.195263200206682,797.7645314000547,None,,,,,,,,,,,,,h,001,2021_Jul_04_1322,toilet,2021.1.3,99.92635420476049,
0,0,4,-4,0.85,,,,,2,0,2,0,0,18,18,7,,,,,,,,,,,,,,,,,,,,,,,799.9660257999785,None,799.9660257999785,None,799.4656828001607,None,j,0.36981269996613264,799.9660257999785,None,,,,,,,,,,,,,h,001,2021_Jul_04_1322,toilet,2021.1.3,99.92635420476049,
0,0,4,-4,0.97,,,,,2,0,2,0,0,19,19,9,,,,,,,,,,,,,,,,,,,,,,,801.3469620000105,None,801.3469620000105,None,800.8466185000725,None,f,0.8767782999202609,801.3469620000105,None,,,,,,,,,,,,,h,001,2021_Jul_04_1322,toilet,2021.1.3,99.92635420476049,
180,0,4,-4,1.03,,,,,2,0,2,0,0,20,20,53,,,,,,,,,,,,,,,,,,,,,,,803.228311400162,None,803.228311400162,None,802.7279801000841,None,j,2.995525100035593,803.228311400162,None,,,,,,,,,,,,,h,001,2021_Jul_04_1322,toilet,2021.1.3,99.92635420476049,
0,180,4,-4,0.85,,,,,2,0,2,0,0,21,21,21,,,,,,,,,,,,,,,,,,,,,,,807.2309469000902,None,807.2309469000902,None,806.7306107999757,None,j,0.9129863998387009,807.2309469000902,None,,,,,,,,,,,,,h,001,2021_Jul_04_1322,toilet,2021.1.3,99.92635420476049,
180,0,-4,4,1.15,,,,,2,0,2,0,0,22,22,48,,,,,,,,,,,,,,,,,,,,,,,809.1622570999898,None,809.1622570999898,None,808.6619190000929,None,j,0.6616622998844832,809.1622570999898,None,,,,,,,,,,,,,h,001,2021_Jul_04_1322,toilet,2021.1.3,99.92635420476049,
180,180,-4,4,0.85,,,,,2,0,2,0,0,23,23,28,,,,,,,,,,,,,,,,,,,,,,,810.8334824000485,None,810.8334824000485,None,810.3330554000568,None,f,0.47830469999462366,810.8334824000485,None,,,,,,,,,,,,,h,001,2021_Jul_04_1322,toilet,2021.1.3,99.92635420476049,
180,0,4,-4,0.97,,,,,2,0,2,0,0,24,24,51,,,,,,,,,,,,,,,,,,,,,,,812.3244298000354,None,812.3244298000354,None,811.8240968000609,None,j,1.0992950000800192,812.3244298000354,None,,,,,,,,,,,,,h,001,2021_Jul_04_1322,toilet,2021.1.3,99.92635420476049,
0,180,-4,4,1.0,,,,,2,0,2,0,0,25,25,17,,,,,,,,,,,,,,,,,,,,,,,814.4258259001654,None,814.4258259001654,None,813.9254690001253,None,j,0.8699129999149591,814.4258259001654,None,,,,,,,,,,,,,h,001,2021_Jul_04_1322,toilet,2021.1.3,99.92635420476049,
0,180,-4,4,0.97,,,,,2,0,2,0,0,26,26,16,,,,,,,,,,,,,,,,,,,,,,,816.2970938000362,None,816.2970938000362,None,815.7967570000328,None,f,0.438705500215292,816.2970938000362,None,,,,,,,,,,,,,h,001,2021_Jul_04_1322,toilet,2021.1.3,99.92635420476049,
180,0,-4,4,1.03,,,,,2,0,2,0,0,27,27,46,,,,,,,,,,,,,,,,,,,,,,,817.7481692000292,None,817.7481692000292,None,817.2477385001257,None,j,0.3957532998174429,817.7481692000292,None,,,,,,,,,,,,,h,001,2021_Jul_04_1322,toilet,2021.1.3,99.92635420476049,
0,180,-4,4,0.94,,,,,2,0,2,0,0,28,28,15,,,,,,,,,,,,,,,,,,,,,,,819.1590684000403,None,819.1590684000403,None,818.6586931999773,None,f,0.6486539000179619,819.1590684000403,None,,,,,,,,,,,,,h,001,2021_Jul_04_1322,toilet,2021.1.3,99.92635420476049,
180,0,4,-4,0.94,,,,,2,0,2,0,0,29,29,50,,,,,,,,,,,,,,,,,,,,,,,820.8101521001663,None,820.8101521001663,None,820.3098216000944,None,j,0.43757679988630116,820.8101521001663,None,,,,,,,,,,,,,h,001,2021_Jul_04_1322,toilet,2021.1.3,99.92635420476049,
0,0,-4,4,1.03,,,,,2,0,2,0,0,30,30,4,,,,,,,,,,,,,,,,,,,,,,,822.2511295001023,None,822.2511295001023,None,821.7507892001886,None,f,0.4528149999678135,822.2511295001023,None,,,,,,,,,,,,,h,001,2021_Jul_04_1322,toilet,2021.1.3,99.92635420476049,
180,180,4,-4,1.06,,,,,2,0,2,0,0,31,31,40,,,,,,,,,,,,,,,,,,,,,,,823.7321349000558,None,823.7321349000558,None,823.2317923000082,None,f,0.47576599987223744,823.7321349000558,None,,,,,,,,,,,,,h,001,2021_Jul_04_1322,toilet,2021.1.3,99.92635420476049,
0,180,-4,4,1.03,,,,,2,0,2,0,0,32,32,18,,,,,,,,,,,,,,,,,,,,,,,825.2332429001108,None,825.2332429001108,None,824.7328100001905,None,j,0.38271010015159845,825.2332429001108,None,,,,,,,,,,,,,h,001,2021_Jul_04_1322,toilet,2021.1.3,99.92635420476049,
180,0,-4,4,0.94,,,,,2,0,2,0,0,33,33,43,,,,,,,,,,,,,,,,,,,,,,,826.6341413999908,None,826.6341413999908,None,826.1338582001626,None,f,0.37365460000000894,826.6341413999908,None,,,,,,,,,,,,,h,001,2021_Jul_04_1322,toilet,2021.1.3,99.92635420476049,
180,0,-4,4,1.06,,,,,2,0,2,0,0,34,34,47,,,,,,,,,,,,,,,,,,,,,,,828.0150386001915,None,828.0150386001915,None,827.5147011000663,None,j,0.4327136999927461,828.0150386001915,None,,,,,,,,,,,,,h,001,2021_Jul_04_1322,toilet,2021.1.3,99.92635420476049,
180,180,4,-4,0.85,,,,,2,0,2,0,0,35,35,35,,,,,,,,,,,,,,,,,,,,,,,829.4560244001914,None,829.4560244001914,None,828.9556715001818,None,j,0.35181950009427965,829.4560244001914,None,,,,,,,,,,,,,h,001,2021_Jul_04_1322,toilet,2021.1.3,99.92635420476049,
0,0,-4,4,0.85,,,,,2,0,2,0,0,36,36,0,,,,,,,,,,,,,,,,,,,,,,,830.8269401001744,None,830.8269401001744,None,830.3266009001527,None,f,0.3409602001775056,830.8269401001744,None,,,,,,,,,,,,,h,001,2021_Jul_04_1322,toilet,2021.1.3,99.92635420476049,
0,0,4,-4,1.0,,,,,2,0,2,0,0,37,37,10,,,,,,,,,,,,,,,,,,,,,,,832.1778768000659,None,832.1778768000659,None,831.6775164999999,None,j,0.33400859986431897,832.1778768000659,None,,,,,,,,,,,,,h,001,2021_Jul_04_1322,toilet,2021.1.3,99.92635420476049,
0,0,4,-4,1.06,,,,,2,0,2,0,0,38,38,12,,,,,,,,,,,,,,,,,,,,,,,833.5288576001767,None,833.5288576001767,None,833.0285132999998,None,f,0.40701649989932775,833.5288576001767,None,,,,,,,,,,,,,h,001,2021_Jul_04_1322,toilet,2021.1.3,99.92635420476049,
180,0,4,-4,1.15,,,,,2,0,2,0,0,39,39,55,,,,,,,,,,,,,,,,,,,,,,,834.9497379001696,None,834.9497379001696,None,834.4493980000261,None,j,0.37797600007615983,834.9497379001696,None,,,,,,,,,,,,,h,001,2021_Jul_04_1322,toilet,2021.1.3,99.92635420476049,
180,0,-4,4,0.97,,,,,2,0,2,0,0,40,40,44,,,,,,,,,,,,,,,,,,,,,,,836.330673100194,None,836.330673100194,None,835.8303308000322,None,j,1.141216899966821,836.330673100194,None,,,,,,,,,,,,,h,001,2021_Jul_04_1322,toilet,2021.1.3,99.92635420476049,
180,180,-4,4,0.94,,,,,2,0,2,0,0,41,41,29,,,,,,,,,,,,,,,,,,,,,,,838.4821294001304,None,838.4821294001304,None,837.981794900028,None,f,0.3656395999714732,838.4821294001304,None,,,,,,,,,,,,,h,001,2021_Jul_04_1322,toilet,2021.1.3,99.92635420476049,
180,180,-4,4,1.15,,,,,2,0,2,0,0,42,42,34,,,,,,,,,,,,,,,,,,,,,,,839.8630641000345,None,839.8630641000345,None,839.362802100135,None,j,0.44080430013127625,839.8630641000345,None,,,,,,,,,,,,,h,001,2021_Jul_04_1322,toilet,2021.1.3,99.92635420476049,
0,0,-4,4,1.0,,,,,2,0,2,0,0,43,43,3,,,,,,,,,,,,,,,,,,,,,,,841.3140591999982,None,841.3140591999982,None,840.8137888000347,None,f,0.38178749987855554,841.3140591999982,None,,,,,,,,,,,,,h,001,2021_Jul_04_1322,toilet,2021.1.3,99.92635420476049,
0,180,4,-4,1.15,,,,,2,0,2,0,0,44,44,27,,,,,,,,,,,,,,,,,,,,,,,842.7049931001384,None,842.7049931001384,None,842.2046519001015,None,f,0.3987519000656903,842.7049931001384,None,,,,,,,,,,,,,h,001,2021_Jul_04_1322,toilet,2021.1.3,99.92635420476049,
0,180,-4,4,1.15,,,,,2,0,2,0,0,45,45,20,,,,,,,,,,,,,,,,,,,,,,,844.1059400001541,None,844.1059400001541,None,843.6055978001095,None,j,1.0137788001447916,844.1059400001541,None,,,,,,,,,,,,,h,001,2021_Jul_04_1322,toilet,2021.1.3,99.92635420476049,
0,180,-4,4,0.85,,,,,2,0,2,0,0,46,46,14,,,,,,,,,,,,,,,,,,,,,,,846.1273122001439,None,846.1273122001439,None,845.6269969001878,None,f,0.32061719987541437,846.1273122001439,None,,,,,,,,,,,,,h,001,2021_Jul_04_1322,toilet,2021.1.3,99.92635420476049,
0,180,4,-4,1.0,,,,,2,0,2,0,0,47,47,24,,,,,,,,,,,,,,,,,,,,,,,847.4582874001935,None,847.4582874001935,None,846.9578846001532,None,f,0.3495087001938373,847.4582874001935,None,,,,,,,,,,,,,h,001,2021_Jul_04_1322,toilet,2021.1.3,99.92635420476049,
180,0,-4,4,0.85,,,,,2,0,2,0,0,48,48,42,,,,,,,,,,,,,,,,,,,,,,,848.8191502001137,None,848.8191502001137,None,848.3188740999904,None,f,0.42865819996222854,848.8191502001137,None,,,,,,,,,,,,,h,001,2021_Jul_04_1322,toilet,2021.1.3,99.92635420476049,
180,0,-4,4,1.0,,,,,2,0,2,0,0,49,49,45,,,,,,,,,,,,,,,,,,,,,,,850.2501090001315,None,850.2501090001315,None,849.7497659001965,None,f,2.1497329000849277,850.2501090001315,None,,,,,,,,,,,,,h,001,2021_Jul_04_1322,toilet,2021.1.3,99.92635420476049,
180,180,4,-4,1.15,,,,,2,0,2,0,0,50,50,41,,,,,,,,,,,,,,,,,,,,,,,853.4122441001236,None,853.4122441001236,None,852.9119108000305,None,f,0.4437168000731617,853.4122441001236,None,,,,,,,,,,,,,h,001,2021_Jul_04_1322,toilet,2021.1.3,99.92635420476049,
180,180,-4,4,1.0,,,,,2,0,2,0,0,51,51,31,,,,,,,,,,,,,,,,,,,,,,,854.8732408001088,None,854.8732408001088,None,854.3729895001743,None,j,0.45462229987606406,854.8732408001088,None,,,,,,,,,,,,,h,001,2021_Jul_04_1322,toilet,2021.1.3,99.92635420476049,
180,180,-4,4,0.97,,,,,2,0,2,0,0,52,52,30,,,,,,,,,,,,,,,,,,,,,,,856.3442350002006,None,856.3442350002006,None,855.8439866001718,None,f,1.6714663000311702,856.3442350002006,None,,,,,,,,,,,,,h,001,2021_Jul_04_1322,toilet,2021.1.3,99.92635420476049,
180,180,-4,4,1.03,,,,,2,0,2,0,0,53,53,32,,,,,,,,,,,,,,,,,,,,,,,859.0160482001957,None,859.0160482001957,None,858.5157092001755,None,j,0.42366399988532066,859.0160482001957,None,,,,,,,,,,,,,h,001,2021_Jul_04_1322,toilet,2021.1.3,99.92635420476049,
180,0,4,-4,1.0,,,,,2,0,2,0,0,54,54,52,,,,,,,,,,,,,,,,,,,,,,,860.4470183001831,None,860.4470183001831,None,859.9466752000153,None,j,0.8487628998700529,860.4470183001831,None,,,,,,,,,,,,,h,001,2021_Jul_04_1322,toilet,2021.1.3,99.92635420476049,
180,180,4,-4,0.94,,,,,2,0,2,0,0,55,55,36,,,,,,,,,,,,,,,,,,,,,,,862.3083697000984,None,862.3083697000984,None,861.8079405000899,None,j,0.619399500079453,862.3083697000984,None,,,,,,,,,,,,,h,001,2021_Jul_04_1322,toilet,2021.1.3,99.92635420476049,
180,180,-4,4,1.06,,,,,2,0,2,0,1,0,56,33,,,,,,,,,,,,,,,,,,,,,,,863.9393819000106,None,863.9393819000106,None,863.4390772001352,None,j,0.5404033998493105,863.9393819000106,None,,,,,,,,,,,,,h,001,2021_Jul_04_1322,toilet,2021.1.3,99.92635420476049,
180,180,4,-4,0.97,,,,,2,0,2,0,1,1,57,37,,,,,,,,,,,,,,,,,,,,,,,865.4804241000675,None,865.4804241000675,None,864.9800909000915,None,j,0.42346830014139414,865.4804241000675,None,,,,,,,,,,,,,h,001,2021_Jul_04_1322,toilet,2021.1.3,99.92635420476049,
0,0,-4,4,0.94,,,,,2,0,2,0,1,2,58,1,,,,,,,,,,,,,,,,,,,,,,,866.911401099991,None,866.911401099991,None,866.4110596000683,None,f,1.0883771998342127,866.911401099991,None,,,,,,,,,,,,,h,001,2021_Jul_04_1322,toilet,2021.1.3,99.92635420476049,
180,0,4,-4,0.94,,,,,2,0,2,0,1,3,59,50,,,,,,,,,,,,,,,,,,,,,,,869.0129043001216,None,869.0129043001216,None,868.5124802000355,None,j,0.47493029991164804,869.0129043001216,None,,,,,,,,,,,,,h,001,2021_Jul_04_1322,toilet,2021.1.3,99.92635420476049,
180,0,4,-4,0.97,,,,,2,0,2,0,1,4,60,51,,,,,,,,,,,,,,,,,,,,,,,870.5039214000572,None,870.5039214000572,None,870.0034960000776,None,j,0.5518098999746144,870.5039214000572,None,,,,,,,,,,,,,h,001,2021_Jul_04_1322,toilet,2021.1.3,99.92635420476049,
180,180,-4,4,0.97,,,,,2,0,2,0,1,5,61,30,,,,,,,,,,,,,,,,,,,,,,,872.0648917001672,None,872.0648917001672,None,871.5645521001425,None,f,0.4628816000185907,872.0648917001672,None,,,,,,,,,,,,,h,001,2021_Jul_04_1322,toilet,2021.1.3,99.92635420476049,
180,180,4,-4,1.06,,,,,2,0,2,0,1,6,62,40,,,,,,,,,,,,,,,,,,,,,,,873.5358846001327,None,873.5358846001327,None,873.0355460999999,None,f,0.831976099871099,873.5358846001327,None,,,,,,,,,,,,,h,001,2021_Jul_04_1322,toilet,2021.1.3,99.92635420476049,
180,0,-4,4,1.15,,,,,2,0,2,0,1,7,63,48,,,,,,,,,,,,,,,,,,,,,,,875.3771352001932,None,875.3771352001932,None,874.8767938001547,None,j,0.39861709997057915,875.3771352001932,None,,,,,,,,,,,,,h,001,2021_Jul_04_1322,toilet,2021.1.3,99.92635420476049,
180,0,-4,4,0.97,,,,,2,0,2,0,1,8,64,44,,,,,,,,,,,,,,,,,,,,,,,876.7881780001335,None,876.7881780001335,None,876.2877913999837,None,f,0.4438143998850137,876.7881780001335,None,,,,,,,,,,,,,h,001,2021_Jul_04_1322,toilet,2021.1.3,99.92635420476049,
180,0,-4,4,1.06,,,,,2,0,2,0,1,9,65,47,,,,,,,,,,,,,,,,,,,,,,,878.249105400173,None,878.249105400173,None,877.7488186000846,None,j,1.0146098998375237,878.249105400173,None,,,,,,,,,,,,,h,001,2021_Jul_04_1322,toilet,2021.1.3,99.92635420476049,
0,180,-4,4,0.94,,,,,2,0,2,0,1,10,66,15,,,,,,,,,,,,,,,,,,,,,,,880.2704483000562,None,880.2704483000562,None,879.7701086001471,None,f,0.8176319000776857,880.2704483000562,None,,,,,,,,,,,,,h,001,2021_Jul_04_1322,toilet,2021.1.3,99.92635420476049,
0,180,4,-4,1.15,,,,,2,0,2,0,1,11,67,27,,,,,,,,,,,,,,,,,,,,,,,882.1017229000572,None,882.1017229000572,None,881.6013536001556,None,f,0.4261035001836717,882.1017229000572,None,,,,,,,,,,,,,h,001,2021_Jul_04_1322,toilet,2021.1.3,99.92635420476049,
0,180,-4,4,0.85,,,,,2,0,2,0,1,12,68,14,,,,,,,,,,,,,,,,,,,,,,,883.5427590000909,None,883.5427590000909,None,883.0423298000824,None,f,1.273029499920085,883.5427590000909,None,,,,,,,,,,,,,h,001,2021_Jul_04_1322,toilet,2021.1.3,99.92635420476049,
180,180,4,-4,1.0,,,,,2,0,2,0,1,13,69,38,,,,,,,,,,,,,,,,,,,,,,,885.8342236999888,None,885.8342236999888,None,885.3339683001395,None,j,2.56544700008817,885.8342236999888,None,,,,,,,,,,,,,h,001,2021_Jul_04_1322,toilet,2021.1.3,99.92635420476049,
0,0,4,-4,1.03,,,,,2,0,2,0,1,14,70,11,,,,,,,,,,,,,,,,,,,,,,,889.4066455999855,None,889.4066455999855,None,888.9063011000399,None,f,4.305019999854267,889.4066455999855,None,,,,,,,,,,,,,h,001,2021_Jul_04_1322,toilet,2021.1.3,99.92635420476049,
0,180,-4,4,1.0,,,,,2,0,2,0,1,15,71,17,,,,,,,,,,,,,,,,,,,,,,,894.7302507001441,None,894.7302507001441,None,894.2300033001229,None,j,1.2214460999239236,894.7302507001441,None,,,,,,,,,,,,,h,001,2021_Jul_04_1322,toilet,2021.1.3,99.92635420476049,
180,180,-4,4,1.03,,,,,2,0,2,0,1,16,72,32,,,,,,,,,,,,,,,,,,,,,,,896.9517587001901,None,896.9517587001901,None,896.4514158000238,None,j,1.2879019000101835,896.9517587001901,None,,,,,,,,,,,,,h,001,2021_Jul_04_1322,toilet,2021.1.3,99.92635420476049,
180,180,-4,4,1.15,,,,,2,0,2,0,1,17,73,34,,,,,,,,,,,,,,,,,,,,,,,899.2433072000276,None,899.2433072000276,None,898.742972600041,None,j,0.564485999988392,899.2433072000276,None,,,,,,,,,,,,,h,001,2021_Jul_04_1322,toilet,2021.1.3,99.92635420476049,
180,180,4,-4,1.03,,,,,2,0,2,0,1,18,74,39,,,,,,,,,,,,,,,,,,,,,,,900.8344765000511,None,900.8344765000511,None,900.334049400175,None,f,2.3012276999652386,900.8344765000511,None,,,,,,,,,,,,,h,001,2021_Jul_04_1322,toilet,2021.1.3,99.92635420476049,
0,0,4,-4,1.06,,,,,2,0,2,0,1,19,75,12,,,,,,,,,,,,,,,,,,,,,,,904.1366245001554,None,904.1366245001554,None,903.6362863001414,None,f,0.5991255000699311,904.1366245001554,None,,,,,,,,,,,,,h,001,2021_Jul_04_1322,toilet,2021.1.3,99.92635420476049,
0,180,-4,4,1.03,,,,,2,0,2,0,1,20,76,18,,,,,,,,,,,,,,,,,,,,,,,905.7377194000874,None,905.7377194000874,None,905.2373709001113,None,j,0.45416179997846484,905.7377194000874,None,,,,,,,,,,,,,h,001,2021_Jul_04_1322,toilet,2021.1.3,99.92635420476049,
0,0,-4,4,1.0,,,,,2,0,2,0,1,21,77,3,,,,,,,,,,,,,,,,,,,,,,,907.2087979000062,None,907.2087979000062,None,906.7083678999916,None,j,0.775001100031659,907.2087979000062,None,,,,,,,,,,,,,h,001,2021_Jul_04_1322,toilet,2021.1.3,99.92635420476049,
180,0,-4,4,1.03,,,,,2,0,2,0,1,22,78,46,,,,,,,,,,,,,,,,,,,,,,,908.9999548001215,None,908.9999548001215,None,908.4996581000742,None,f,0.42379990010522306,908.9999548001215,None,,,,,,,,,,,,,h,001,2021_Jul_04_1322,toilet,2021.1.3,99.92635420476049,
0,0,-4,4,0.85,,,,,2,0,2,0,1,23,79,0,,,,,,,,,,,,,,,,,,,,,,,910.430890600197,None,910.430890600197,None,909.9305579999927,None,f,0.5767425999511033,910.430890600197,None,,,,,,,,,,,,,h,001,2021_Jul_04_1322,toilet,2021.1.3,99.92635420476049,
0,0,-4,4,0.97,,,,,2,0,2,0,1,24,80,2,,,,,,,,,,,,,,,,,,,,,,,912.0119591001421,None,912.0119591001421,None,911.511624700157,None,j,0.8517437998671085,912.0119591001421,None,,,,,,,,,,,,,h,001,2021_Jul_04_1322,toilet,2021.1.3,99.92635420476049,
0,0,4,-4,1.0,,,,,2,0,2,0,1,25,81,10,,,,,,,,,,,,,,,,,,,,,,,913.8732227000874,None,913.8732227000874,None,913.37288060016,None,j,0.6065428999718279,913.8732227000874,None,,,,,,,,,,,,,h,001,2021_Jul_04_1322,toilet,2021.1.3,99.92635420476049,
180,180,-4,4,0.85,,,,,2,0,2,0,1,26,82,28,,,,,,,,,,,,,,,,,,,,,,,915.494324499974,None,915.494324499974,None,914.9940593000501,None,f,0.4255105000920594,915.494324499974,None,,,,,,,,,,,,,h,001,2021_Jul_04_1322,toilet,2021.1.3,99.92635420476049,
0,180,-4,4,1.15,,,,,2,0,2,0,1,27,83,20,,,,,,,,,,,,,,,,,,,,,,,916.935296199983,None,916.935296199983,None,916.4350028000772,None,j,0.4243240999057889,916.935296199983,None,,,,,,,,,,,,,h,001,2021_Jul_04_1322,toilet,2021.1.3,99.92635420476049,
180,0,-4,4,1.0,,,,,2,0,2,0,1,28,84,45,,,,,,,,,,,,,,,,,,,,,,,918.3662680000998,None,918.3662680000998,None,917.8659316000994,None,f,0.4653876000083983,918.3662680000998,None,,,,,,,,,,,,,h,001,2021_Jul_04_1322,toilet,2021.1.3,99.92635420476049,
0,180,4,-4,1.0,,,,,2,0,2,0,1,29,85,24,,,,,,,,,,,,,,,,,,,,,,,919.8372671001125,None,919.8372671001125,None,919.3369258001912,None,f,5.106435999972746,919.8372671001125,None,,,,,,,,,,,,,h,001,2021_Jul_04_1322,toilet,2021.1.3,99.92635420476049,
180,0,4,-4,1.0,,,,,2,0,2,0,1,30,86,52,,,,,,,,,,,,,,,,,,,,,,,925.951413200004,None,925.951413200004,None,925.4510772000067,None,f,2.2563708999659866,925.951413200004,None,,,,,,,,,,,,,h,001,2021_Jul_04_1322,toilet,2021.1.3,99.92635420476049,
180,0,4,-4,0.85,,,,,2,0,2,0,1,31,87,49,,,,,,,,,,,,,,,,,,,,,,,929.2336377999745,None,929.2336377999745,None,928.7332940001506,None,j,0.5901780999265611,929.2336377999745,None,,,,,,,,,,,,,h,001,2021_Jul_04_1322,toilet,2021.1.3,99.92635420476049,
0,0,-4,4,1.15,,,,,2,0,2,0,1,32,88,6,,,,,,,,,,,,,,,,,,,,,,,930.8347928000148,None,930.8347928000148,None,930.3343831000384,None,j,0.5088160000741482,930.8347928000148,None,,,,,,,,,,,,,h,001,2021_Jul_04_1322,toilet,2021.1.3,99.92635420476049,
0,0,4,-4,0.97,,,,,2,0,2,0,1,33,89,9,,,,,,,,,,,,,,,,,,,,,,,932.355749099981,None,932.355749099981,None,931.8554114999715,None,j,0.8598780001047999,932.355749099981,None,,,,,,,,,,,,,h,001,2021_Jul_04_1322,toilet,2021.1.3,99.92635420476049,
0,0,4,-4,1.15,,,,,2,0,2,0,1,34,90,13,,,,,,,,,,,,,,,,,,,,,,,934.2170101001393,None,934.2170101001393,None,933.71666990011,None,f,0.566625100094825,934.2170101001393,None,,,,,,,,,,,,,h,001,2021_Jul_04_1322,toilet,2021.1.3,99.92635420476049,
180,180,4,-4,0.85,,,,,2,0,2,0,1,35,91,35,,,,,,,,,,,,,,,,,,,,,,,935.7880788000766,None,935.7880788000766,None,935.2877382000443,None,j,0.3877663998864591,935.7880788000766,None,,,,,,,,,,,,,h,001,2021_Jul_04_1322,toilet,2021.1.3,99.92635420476049,
0,180,4,-4,1.03,,,,,2,0,2,0,1,36,92,25,,,,,,,,,,,,,,,,,,,,,,,937.1890961001627,None,937.1890961001627,None,936.6887147000525,None,f,0.36279769986867905,937.1890961001627,None,,,,,,,,,,,,,h,001,2021_Jul_04_1322,toilet,2021.1.3,99.92635420476049,
180,0,4,-4,1.03,,,,,2,0,2,0,1,37,93,53,,,,,,,,,,,,,,,,,,,,,,,938.5699622000102,None,938.5699622000102,None,938.0697057000361,None,j,0.4217687000054866,938.5699622000102,None,,,,,,,,,,,,,h,001,2021_Jul_04_1322,toilet,2021.1.3,99.92635420476049,
180,0,-4,4,0.85,,,,,2,0,2,0,1,38,94,42,,,,,,,,,,,,,,,,,,,,,,,939.9909296000842,None,939.9909296000842,None,939.4905819999985,None,f,0.3926902001257986,939.9909296000842,None,,,,,,,,,,,,,h,001,2021_Jul_04_1322,toilet,2021.1.3,99.92635420476049,
0,180,4,-4,0.97,,,,,2,0,2,0,1,39,95,23,,,,,,,,,,,,,,,,,,,,,,,941.3918767999858,None,941.3918767999858,None,940.8915378001984,None,f,0.9119182999711484,941.3918767999858,None,,,,,,,,,,,,,h,001,2021_Jul_04_1322,toilet,2021.1.3,99.92635420476049,
0,180,-4,4,1.06,,,,,2,0,2,0,1,40,96,19,,,,,,,,,,,,,,,,,,,,,,,943.3131730000023,None,943.3131730000023,None,942.8128394000232,None,j,0.4306656999979168,943.3131730000023,None,,,,,,,,,,,,,h,001,2021_Jul_04_1322,toilet,2021.1.3,99.92635420476049,
0,180,4,-4,0.85,,,,,2,0,2,0,1,41,97,21,,,,,,,,,,,,,,,,,,,,,,,944.7542395000346,None,944.7542395000346,None,944.2538132001646,None,j,0.5414106000680476,944.7542395000346,None,,,,,,,,,,,,,h,001,2021_Jul_04_1322,toilet,2021.1.3,99.92635420476049,
180,0,-4,4,0.94,,,,,2,0,2,0,1,42,98,43,,,,,,,,,,,,,,,,,,,,,,,946.2951979001518,None,946.2951979001518,None,945.7949380001519,None,f,0.5844084999989718,946.2951979001518,None,,,,,,,,,,,,,h,001,2021_Jul_04_1322,toilet,2021.1.3,99.92635420476049,
0,0,-4,4,1.06,,,,,2,0,2,0,1,43,99,5,,,,,,,,,,,,,,,,,,,,,,,947.8862767000683,None,947.8862767000683,None,947.3859310001135,None,j,0.5773178001400083,947.8862767000683,None,,,,,,,,,,,,,h,001,2021_Jul_04_1322,toilet,2021.1.3,99.92635420476049,
0,0,-4,4,1.03,,,,,2,0,2,0,1,44,100,4,,,,,,,,,,,,,,,,,,,,,,,949.4673490000423,None,949.4673490000423,None,948.9670093001332,None,f,0.48456740006804466,949.4673490000423,None,,,,,,,,,,,,,h,001,2021_Jul_04_1322,toilet,2021.1.3,99.92635420476049,
0,180,-4,4,0.97,,,,,2,0,2,0,1,45,101,16,,,,,,,,,,,,,,,,,,,,,,,950.9783704001456,None,950.9783704001456,None,950.4780338001437,None,f,1.4212378999218345,950.9783704001456,None,,,,,,,,,,,,,h,001,2021_Jul_04_1322,toilet,2021.1.3,99.92635420476049,
0,180,4,-4,1.06,,,,,2,0,2,0,1,46,102,26,,,,,,,,,,,,,,,,,,,,,,,953.400046700146,None,953.400046700146,None,952.8997732000425,None,f,0.5355332000181079,953.400046700146,None,,,,,,,,,,,,,h,001,2021_Jul_04_1322,toilet,2021.1.3,99.92635420476049,
180,180,4,-4,1.15,,,,,2,0,2,0,1,47,103,41,,,,,,,,,,,,,,,,,,,,,,,954.9410549001768,None,954.9410549001768,None,954.4407159001566,None,f,0.41860259999521077,954.9410549001768,None,,,,,,,,,,,,,h,001,2021_Jul_04_1322,toilet,2021.1.3,99.92635420476049,
0,180,4,-4,0.94,,,,,2,0,2,0,1,48,104,22,,,,,,,,,,,,,,,,,,,,,,,956.3720315000974,None,956.3720315000974,None,955.8716910001822,None,j,0.37963860016316175,956.3720315000974,None,,,,,,,,,,,,,h,001,2021_Jul_04_1322,toilet,2021.1.3,99.92635420476049,
180,0,4,-4,1.15,,,,,2,0,2,0,1,49,105,55,,,,,,,,,,,,,,,,,,,,,,,957.7629697001539,None,957.7629697001539,None,957.2626281999983,None,f,0.4607627000659704,957.7629697001539,None,,,,,,,,,,,,,h,001,2021_Jul_04_1322,toilet,2021.1.3,99.92635420476049,
180,0,4,-4,1.06,,,,,2,0,2,0,1,50,106,54,,,,,,,,,,,,,,,,,,,,,,,959.2340410000179,None,959.2340410000179,None,958.7336436000187,None,f,0.6856990999076515,959.2340410000179,None,,,,,,,,,,,,,h,001,2021_Jul_04_1322,toilet,2021.1.3,99.92635420476049,
180,180,4,-4,0.94,,,,,2,0,2,0,1,51,107,36,,,,,,,,,,,,,,,,,,,,,,,960.9351164000109,None,960.9351164000109,None,960.4348597000353,None,j,0.424493599915877,960.9351164000109,None,,,,,,,,,,,,,h,001,2021_Jul_04_1322,toilet,2021.1.3,99.92635420476049,
0,0,4,-4,0.85,,,,,2,0,2,0,1,52,108,7,,,,,,,,,,,,,,,,,,,,,,,962.366121500032,None,962.366121500032,None,961.8657498001121,None,j,0.43360819993540645,962.366121500032,None,,,,,,,,,,,,,h,001,2021_Jul_04_1322,toilet,2021.1.3,99.92635420476049,
180,180,-4,4,1.0,,,,,2,0,2,0,1,53,109,31,,,,,,,,,,,,,,,,,,,,,,,963.8070619001519,None,963.8070619001519,None,963.3067384001333,None,j,0.9446231001056731,963.8070619001519,None,,,,,,,,,,,,,h,001,2021_Jul_04_1322,toilet,2021.1.3,99.92635420476049,
180,180,-4,4,0.94,,,,,2,0,2,0,1,54,110,29,,,,,,,,,,,,,,,,,,,,,,,965.7583861001767,None,965.7583861001767,None,965.2580485001672,None,f,1.0254030001815408,965.7583861001767,None,,,,,,,,,,,,,h,001,2021_Jul_04_1322,toilet,2021.1.3,99.92635420476049,
0,0,4,-4,0.94,,,,,2,0,2,0,1,55,111,8,,,,,,,,,,,,,,,,,,,,,,,967.7997793001123,None,967.7997793001123,None,967.299530000193,None,j,0.47194519988261163,967.7997793001123,None,,,,,,,,,,,,,h,001,2021_Jul_04_1322,toilet,2021.1.3,99.92635420476049,
,,,,,,,,,2,0,2,0,,,,,,,,,,,,,,,,,,,,,,,,,,,,,,,,,,,,,968.2901544000488,None,space,2.0136440000496805,968.2901544000488,None,,,,,,,h,001,2021_Jul_04_1322,toilet,2021.1.3,99.92635420476049,
180,180,-4,4,1.03,,,,,3,0,3,0,0,0,0,32,,,,,,,,,,,,,,,,,970.3315250000451,None,space,0.3561892001889646,970.3315250000451,None,971.7124181000981,None,971.7124181000981,None,971.2120807999745,None,j,0.4952797000296414,971.7124181000981,None,,,,,,,,,,,,,h,001,2021_Jul_04_1322,toilet,2021.1.3,99.92635420476049,
180,0,4,-4,1.0,,,,,3,0,3,0,0,1,1,52,,,,,,,,,,,,,,,,,,,,,,,973.2234438001178,None,973.2234438001178,None,972.7231111000292,None,f,1.1924010999500751,973.2234438001178,None,,,,,,,,,,,,,h,001,2021_Jul_04_1322,toilet,2021.1.3,99.92635420476049,
180,0,4,-4,0.94,,,,,3,0,3,0,0,2,2,50,,,,,,,,,,,,,,,,,,,,,,,975.4249504001345,None,975.4249504001345,None,974.9245987001341,None,j,0.43065030011348426,975.4249504001345,None,,,,,,,,,,,,,h,001,2021_Jul_04_1322,toilet,2021.1.3,99.92635420476049,
0,0,-4,4,0.97,,,,,3,0,3,0,0,3,3,2,,,,,,,,,,,,,,,,,,,,,,,976.8559008000884,None,976.8559008000884,None,976.3555678999983,None,f,1.6398010000120848,976.8559008000884,None,,,,,,,,,,,,,h,001,2021_Jul_04_1322,toilet,2021.1.3,99.92635420476049,
0,180,-4,4,0.97,,,,,3,0,3,0,0,4,4,16,,,,,,,,,,,,,,,,,,,,,,,979.5077041001059,None,979.5077041001059,None,979.0073596001603,None,j,1.7241090999450535,979.5077041001059,None,,,,,,,,,,,,,h,001,2021_Jul_04_1322,toilet,2021.1.3,99.92635420476049,
0,180,4,-4,0.94,,,,,3,0,3,0,0,5,5,22,,,,,,,,,,,,,,,,,,,,,,,982.2496387001593,None,982.2496387001593,None,981.7492235000245,None,j,1.7979111999738961,982.2496387001593,None,,,,,,,,,,,,,h,001,2021_Jul_04_1322,toilet,2021.1.3,99.92635420476049,
0,0,4,-4,1.06,,,,,3,0,3,0,0,6,6,12,,,,,,,,,,,,,,,,,,,,,,,985.0514501000289,None,985.0514501000289,None,984.5511198001914,None,f,1.0281726000830531,985.0514501000289,None,,,,,,,,,,,,,h,001,2021_Jul_04_1322,toilet,2021.1.3,99.92635420476049,
180,0,-4,4,0.94,,,,,3,0,3,0,0,7,7,43,,,,,,,,,,,,,,,,,,,,,,,987.0828340000007,None,987.0828340000007,None,986.5824959999882,None,f,1.0288674000184983,987.0828340000007,None,,,,,,,,,,,,,h,001,2021_Jul_04_1322,toilet,2021.1.3,99.92635420476049,
180,180,4,-4,0.85,,,,,3,0,3,0,0,8,8,35,,,,,,,,,,,,,,,,,,,,,,,989.1243112999946,None,989.1243112999946,None,988.6238773001824,None,j,0.44354310003109276,989.1243112999946,None,,,,,,,,,,,,,h,001,2021_Jul_04_1322,toilet,2021.1.3,99.92635420476049,
180,180,-4,4,1.06,,,,,3,0,3,0,0,9,9,33,,,,,,,,,,,,,,,,,,,,,,,990.5952141000889,None,990.5952141000889,None,990.0949131001253,None,j,1.340388499898836,990.5952141000889,None,,,,,,,,,,,,,h,001,2021_Jul_04_1322,toilet,2021.1.3,99.92635420476049,
180,180,4,-4,1.06,,,,,3,0,3,0,0,10,10,40,,,,,,,,,,,,,,,,,,,,,,,992.9368078000844,None,992.9368078000844,None,992.4364941001404,None,f,0.6788782000076026,992.9368078000844,None,,,,,,,,,,,,,h,001,2021_Jul_04_1322,toilet,2021.1.3,99.92635420476049,
180,180,-4,4,1.0,,,,,3,0,3,0,0,11,11,31,,,,,,,,,,,,,,,,,,,,,,,994.6279494999908,None,994.6279494999908,None,994.1276151000056,None,f,0.6996613999363035,994.6279494999908,None,,,,,,,,,,,,,h,001,2021_Jul_04_1322,toilet,2021.1.3,99.92635420476049,
180,0,-4,4,0.85,,,,,3,0,3,0,0,12,12,42,,,,,,,,,,,,,,,,,,,,,,,996.3391883000731,None,996.3391883000731,None,995.8387690000236,None,f,0.47659080009907484,996.3391883000731,None,,,,,,,,,,,,,h,001,2021_Jul_04_1322,toilet,2021.1.3,99.92635420476049,
0,180,4,-4,1.0,,,,,3,0,3,0,0,13,13,24,,,,,,,,,,,,,,,,,,,,,,,997.8301517001819,None,997.8301517001819,None,997.3297940001357,None,f,2.729594900039956,997.8301517001819,None,,,,,,,,,,,,,h,001,2021_Jul_04_1322,toilet,2021.1.3,99.92635420476049,
180,0,-4,4,1.03,,,,,3,0,3,0,0,14,14,46,,,,,,,,,,,,,,,,,,,,,,,1001.5726497999858,None,1001.5726497999858,None,1001.0723157001194,None,j,2.3470745000522584,1001.5726497999858,None,,,,,,,,,,,,,h,001,2021_Jul_04_1322,toilet,2021.1.3,99.92635420476049,
0,180,-4,4,0.94,,,,,3,0,3,0,0,15,15,15,,,,,,,,,,,,,,,,,,,,,,,1004.9349734000862,None,1004.9349734000862,None,1004.4345893000718,None,j,1.7046433999203146,1004.9349734000862,None,,,,,,,,,,,,,h,001,2021_Jul_04_1322,toilet,2021.1.3,99.92635420476049,
180,0,-4,4,1.15,,,,,3,0,3,0,0,16,16,48,,,,,,,,,,,,,,,,,,,,,,,1007.6467703999951,None,1007.6467703999951,None,1007.1464325999841,None,j,0.4648393001407385,1007.6467703999951,None,,,,,,,,,,,,,h,001,2021_Jul_04_1322,toilet,2021.1.3,99.92635420476049,
180,180,-4,4,0.85,,,,,3,0,3,0,0,17,17,28,,,,,,,,,,,,,,,,,,,,,,,1009.1277750001755,None,1009.1277750001755,None,1008.6274318001233,None,f,0.583800199907273,1009.1277750001755,None,,,,,,,,,,,,,h,001,2021_Jul_04_1322,toilet,2021.1.3,99.92635420476049,
180,180,4,-4,1.15,,,,,3,0,3,0,0,18,18,41,,,,,,,,,,,,,,,,,,,,,,,1010.7189254001714,None,1010.7189254001714,None,1010.218508800026,None,f,0.4327630999032408,1010.7189254001714,None,,,,,,,,,,,,,h,001,2021_Jul_04_1322,toilet,2021.1.3,99.92635420476049,
0,180,4,-4,1.15,,,,,3,0,3,0,0,19,19,27,,,,,,,,,,,,,,,,,,,,,,,1012.169878100045,None,1012.169878100045,None,1011.6695673000067,None,f,0.8537318999879062,1012.169878100045,None,,,,,,,,,,,,,h,001,2021_Jul_04_1322,toilet,2021.1.3,99.92635420476049,
0,0,-4,4,1.06,,,,,3,0,3,0,0,20,20,5,,,,,,,,,,,,,,,,,,,,,,,1014.031095399987,None,1014.031095399987,None,1013.5307608000003,None,j,0.5765962998848408,1014.031095399987,None,,,,,,,,,,,,,h,001,2021_Jul_04_1322,toilet,2021.1.3,99.92635420476049,
0,0,-4,4,0.94,,,,,3,0,3,0,0,21,21,1,,,,,,,,,,,,,,,,,,,,,,,1015.6321814002004,None,1015.6321814002004,None,1015.1318432001863,None,f,0.43148680008016527,1015.6321814002004,None,,,,,,,,,,,,,h,001,2021_Jul_04_1322,toilet,2021.1.3,99.92635420476049,
0,180,4,-4,0.85,,,,,3,0,3,0,0,22,22,21,,,,,,,,,,,,,,,,,,,,,,,1017.0731628001668,None,1017.0731628001668,None,1016.5728139001876,None,j,0.41458799992688,1017.0731628001668,None,,,,,,,,,,,,,h,001,2021_Jul_04_1322,toilet,2021.1.3,99.92635420476049,
180,0,4,-4,0.85,,,,,3,0,3,0,0,23,23,49,,,,,,,,,,,,,,,,,,,,,,,1018.5042081000283,None,1018.5042081000283,None,1018.0038761000615,None,j,0.42345619993284345,1018.5042081000283,None,,,,,,,,,,,,,h,001,2021_Jul_04_1322,toilet,2021.1.3,99.92635420476049,
0,0,4,-4,1.0,,,,,3,0,3,0,0,24,24,10,,,,,,,,,,,,,,,,,,,,,,,1019.9451051000506,None,1019.9451051000506,None,1019.44485910004,None,j,0.5826026001013815,1019.9451051000506,None,,,,,,,,,,,,,h,001,2021_Jul_04_1322,toilet,2021.1.3,99.92635420476049,
0,180,-4,4,1.06,,,,,3,0,3,0,0,25,25,19,,,,,,,,,,,,,,,,,,,,,,,1021.5361781001557,None,1021.5361781001557,None,1021.0358401001431,None,j,0.4154457999393344,1021.5361781001557,None,,,,,,,,,,,,,h,001,2021_Jul_04_1322,toilet,2021.1.3,99.92635420476049,
0,0,-4,4,1.03,,,,,3,0,3,0,0,26,26,4,,,,,,,,,,,,,,,,,,,,,,,1022.9571458999999,None,1022.9571458999999,None,1022.4568030000664,None,j,0.642584899906069,1022.9571458999999,None,,,,,,,,,,,,,h,001,2021_Jul_04_1322,toilet,2021.1.3,99.92635420476049,
0,0,4,-4,0.85,,,,,3,0,3,0,0,27,27,7,,,,,,,,,,,,,,,,,,,,,,,1024.6182721001096,None,1024.6182721001096,None,1024.1179285000544,None,j,0.5972545999102294,1024.6182721001096,None,,,,,,,,,,,,,h,001,2021_Jul_04_1322,toilet,2021.1.3,99.92635420476049,
0,0,4,-4,0.97,,,,,3,0,3,0,0,28,28,9,,,,,,,,,,,,,,,,,,,,,,,1026.2194408001378,None,1026.2194408001378,None,1025.7190930000506,None,f,0.6442537000402808,1026.2194408001378,None,,,,,,,,,,,,,h,001,2021_Jul_04_1322,toilet,2021.1.3,99.92635420476049,
180,0,4,-4,1.06,,,,,3,0,3,0,0,29,29,54,,,,,,,,,,,,,,,,,,,,,,,1027.870470300084,None,1027.870470300084,None,1027.370136700105,None,f,0.7050022000912577,1027.870470300084,None,,,,,,,,,,,,,h,001,2021_Jul_04_1322,toilet,2021.1.3,99.92635420476049,
180,180,4,-4,1.03,,,,,3,0,3,0,0,30,30,39,,,,,,,,,,,,,,,,,,,,,,,1029.5816379999742,None,1029.5816379999742,None,1029.081295200158,None,j,2.5780448999721557,1029.5816379999742,None,,,,,,,,,,,,,h,001,2021_Jul_04_1322,toilet,2021.1.3,99.92635420476049,
0,180,-4,4,1.03,,,,,3,0,3,0,0,31,31,18,,,,,,,,,,,,,,,,,,,,,,,1033.1841633000877,None,1033.1841633000877,None,1032.6837334001902,None,f,0.4794012999627739,1033.1841633000877,None,,,,,,,,,,,,,h,001,2021_Jul_04_1322,toilet,2021.1.3,99.92635420476049,
0,180,-4,4,1.15,,,,,3,0,3,0,0,32,32,20,,,,,,,,,,,,,,,,,,,,,,,1034.675089100143,None,1034.675089100143,None,1034.1747419000603,None,j,0.5404258999042213,1034.675089100143,None,,,,,,,,,,,,,h,001,2021_Jul_04_1322,toilet,2021.1.3,99.92635420476049,
180,0,-4,4,0.97,,,,,3,0,3,0,0,33,33,44,,,,,,,,,,,,,,,,,,,,,,,1036.2161311001983,None,1036.2161311001983,None,1035.7157865001354,None,f,0.3915551998652518,1036.2161311001983,None,,,,,,,,,,,,,h,001,2021_Jul_04_1322,toilet,2021.1.3,99.92635420476049,
180,0,4,-4,1.15,,,,,3,0,3,0,0,34,34,55,,,,,,,,,,,,,,,,,,,,,,,1037.6170785999857,None,1037.6170785999857,None,1037.1167359000538,None,f,0.43063469999469817,1037.6170785999857,None,,,,,,,,,,,,,h,001,2021_Jul_04_1322,toilet,2021.1.3,99.92635420476049,
0,180,4,-4,1.03,,,,,3,0,3,0,0,35,35,25,,,,,,,,,,,,,,,,,,,,,,,1039.0580522001255,None,1039.0580522001255,None,1038.5577176001389,None,f,0.38153010001406074,1039.0580522001255,None,,,,,,,,,,,,,h,001,2021_Jul_04_1322,toilet,2021.1.3,99.92635420476049,
180,180,-4,4,1.15,,,,,3,0,3,0,0,36,36,34,,,,,,,,,,,,,,,,,,,,,,,1040.43908440019,None,1040.43908440019,None,1039.9386491000187,None,j,0.4245223000179976,1040.43908440019,None,,,,,,,,,,,,,h,001,2021_Jul_04_1322,toilet,2021.1.3,99.92635420476049,
0,0,4,-4,0.94,,,,,3,0,3,0,0,37,37,8,,,,,,,,,,,,,,,,,,,,,,,1041.8799648999702,None,1041.8799648999702,None,1041.3797069999855,None,f,0.3596205001231283,1041.8799648999702,None,,,,,,,,,,,,,h,001,2021_Jul_04_1322,toilet,2021.1.3,99.92635420476049,
0,180,-4,4,1.0,,,,,3,0,3,0,0,38,38,17,,,,,,,,,,,,,,,,,,,,,,,1043.240887900116,None,1043.240887900116,None,1042.7405487999786,None,j,0.422580000013113,1043.240887900116,None,,,,,,,,,,,,,h,001,2021_Jul_04_1322,toilet,2021.1.3,99.92635420476049,
0,180,4,-4,1.06,,,,,3,0,3,0,0,39,39,26,,,,,,,,,,,,,,,,,,,,,,,1044.6718574999832,None,1044.6718574999832,None,1044.1715228999965,None,f,0.33568719984032214,1044.6718574999832,None,,,,,,,,,,,,,h,001,2021_Jul_04_1322,toilet,2021.1.3,99.92635420476049,
0,0,-4,4,1.15,,,,,3,0,3,0,0,40,40,6,,,,,,,,,,,,,,,,,,,,,,,1046.0127691000234,None,1046.0127691000234,None,1045.512427699985,None,j,0.5786865998525172,1046.0127691000234,None,,,,,,,,,,,,,h,001,2021_Jul_04_1322,toilet,2021.1.3,99.92635420476049,
0,180,4,-4,0.97,,,,,3,0,3,0,0,41,41,23,,,,,,,,,,,,,,,,,,,,,,,1047.593922900036,None,1047.593922900036,None,1047.0935011000838,None,f,0.40561429993249476,1047.593922900036,None,,,,,,,,,,,,,h,001,2021_Jul_04_1322,toilet,2021.1.3,99.92635420476049,
180,0,-4,4,1.0,,,,,3,0,3,0,0,42,42,45,,,,,,,,,,,,,,,,,,,,,,,1049.01483310014,None,1049.01483310014,None,1048.5145423000213,None,f,0.39272570004686713,1049.01483310014,None,,,,,,,,,,,,,h,001,2021_Jul_04_1322,toilet,2021.1.3,99.92635420476049,
180,0,-4,4,1.06,,,,,3,0,3,0,0,43,43,47,,,,,,,,,,,,,,,,,,,,,,,1050.4157511000521,None,1050.4157511000521,None,1049.9154104001354,None,j,0.5118599000852555,1050.4157511000521,None,,,,,,,,,,,,,h,001,2021_Jul_04_1322,toilet,2021.1.3,99.92635420476049,
0,0,4,-4,1.03,,,,,3,0,3,0,0,44,44,11,,,,,,,,,,,,,,,,,,,,,,,1051.9367790000979,None,1051.9367790000979,None,1051.4364392000716,None,f,0.44687860016711056,1051.9367790000979,None,,,,,,,,,,,,,h,001,2021_Jul_04_1322,toilet,2021.1.3,99.92635420476049,
0,180,-4,4,0.85,,,,,3,0,3,0,0,45,45,14,,,,,,,,,,,,,,,,,,,,,,,1053.4077757000923,None,1053.4077757000923,None,1052.907440100098,None,f,0.3837089000735432,1053.4077757000923,None,,,,,,,,,,,,,h,001,2021_Jul_04_1322,toilet,2021.1.3,99.92635420476049,
180,180,-4,4,0.97,,,,,3,0,3,0,0,46,46,30,,,,,,,,,,,,,,,,,,,,,,,1054.7988045001402,None,1054.7988045001402,None,1054.2983810000587,None,j,1.1368168001063168,1054.7988045001402,None,,,,,,,,,,,,,h,001,2021_Jul_04_1322,toilet,2021.1.3,99.92635420476049,
180,0,4,-4,1.03,,,,,3,0,3,0,0,47,47,53,,,,,,,,,,,,,,,,,,,,,,,1056.9501875001006,None,1056.9501875001006,None,1056.4499177001417,None,f,0.5533797999378294,1056.9501875001006,None,,,,,,,,,,,,,h,001,2021_Jul_04_1322,toilet,2021.1.3,99.92635420476049,
0,0,-4,4,0.85,,,,,3,0,3,0,0,48,48,0,,,,,,,,,,,,,,,,,,,,,,,1058.511237300001,None,1058.511237300001,None,1058.0108982000966,None,f,0.43243589997291565,1058.511237300001,None,,,,,,,,,,,,,h,001,2021_Jul_04_1322,toilet,2021.1.3,99.92635420476049,
0,0,4,-4,1.15,,,,,3,0,3,0,0,49,49,13,,,,,,,,,,,,,,,,,,,,,,,1059.9722250001505,None,1059.9722250001505,None,1059.4718899000436,None,f,0.3953432000707835,1059.9722250001505,None,,,,,,,,,,,,,h,001,2021_Jul_04_1322,toilet,2021.1.3,99.92635420476049,
