ori_st,ori_pr,xpos_st,xpos_pr,size,trials_3.thisRepN,trials_3.thisTrialN,trials_3.thisN,trials_3.thisIndex,trials_2.thisRepN,trials_2.thisTrialN,trials_2.thisN,trials_2.thisIndex,trials.thisRepN,trials.thisTrialN,trials.thisN,trials.thisIndex,wel_pra.started,wel_pra.stopped,resp_wel.keys,resp_wel.rt,resp_wel.started,resp_wel.stopped,standard_pra.started,standard_pra.stopped,prove_pra.started,prove_pra.stopped,fixation.started,fixation.stopped,resp_pra.keys,resp_pra.rt,resp_pra.started,resp_pra.stopped,instr.started,instr.stopped,key_resp_2.keys,key_resp_2.rt,key_resp_2.started,key_resp_2.stopped,standard.started,standard.stopped,probe.started,probe.stopped,text.started,text.stopped,resp.keys,resp.rt,resp.started,resp.stopped,text_2.started,text_2.stopped,key_resp.keys,key_resp.rt,key_resp.started,key_resp.stopped,participant,session,date,expName,psychopyVersion,frameRate,
,,,,,,,,,,,,,,,,,30.77088920000824,None,space,465.17562490000273,30.77088920000824,None,,,,,,,,,,,,,,,,,,,,,,,,,,,,,,,,,m,001,2021_Jul_08_1338,toilet,2021.1.3,99.85162051868816,
180,0,-4,4,0.85,0,0,0,12,,,,,,,,,,,,,,,496.96879230000195,None,496.96879230000195,None,496.4684455000097,None,f,6.129809500009287,496.96879230000195,None,,,,,,,,,,,,,,,,,,,,,,,m,001,2021_Jul_08_1338,toilet,2021.1.3,99.85162051868816,
0,180,4,-4,0.85,0,1,1,5,,,,,,,,,,,,,,,504.10363630001666,None,504.10363630001666,None,503.60329400000046,None,j,0.6110010000120383,504.10363630001666,None,,,,,,,,,,,,,,,,,,,,,,,m,001,2021_Jul_08_1338,toilet,2021.1.3,99.85162051868816,
180,180,-4,4,0.85,0,2,2,9,,,,,,,,,,,,,,,505.7247300000163,None,505.7247300000163,None,505.2244253999961,None,f,0.5579865000036079,505.7247300000163,None,,,,,,,,,,,,,,,,,,,,,,,m,001,2021_Jul_08_1338,toilet,2021.1.3,99.85162051868816,
180,180,-4,4,1.15,0,3,3,11,,,,,,,,,,,,,,,507.2958778000029,None,507.2958778000029,None,506.79546280001523,None,j,0.5867878000135534,507.2958778000029,None,,,,,,,,,,,,,,,,,,,,,,,m,001,2021_Jul_08_1338,toilet,2021.1.3,99.85162051868816,
0,0,4,-4,0.85,0,4,4,1,,,,,,,,,,,,,,,508.896880699991,None,508.896880699991,None,508.3966319000174,None,j,0.8417891999997664,508.896880699991,None,,,,,,,,,,,,,,,,,,,,,,,m,001,2021_Jul_08_1338,toilet,2021.1.3,99.85162051868816,
180,180,-4,4,0.85,0,5,5,8,,,,,,,,,,,,,,,510.73813159999554,None,510.73813159999554,None,510.23779320000904,None,f,0.5044085999834351,510.73813159999554,None,,,,,,,,,,,,,,,,,,,,,,,m,001,2021_Jul_08_1338,toilet,2021.1.3,99.85162051868816,
180,0,-4,4,1.15,0,6,6,15,,,,,,,,,,,,,,,512.2491606000112,None,512.2491606000112,None,511.74882140001864,None,j,0.4493549999897368,512.2491606000112,None,,,,,,,,,,,,,,,,,,,,,,,m,001,2021_Jul_08_1338,toilet,2021.1.3,99.85162051868816,
0,0,4,-4,1.15,0,7,7,3,,,,,,,,,,,,,,,513.700142799993,None,513.700142799993,None,513.1998040000035,None,f,0.37456149997888133,513.700142799993,None,,,,,,,,,,,,,,,,,,,,,,,m,001,2021_Jul_08_1338,toilet,2021.1.3,99.85162051868816,
0,180,4,-4,1.15,0,8,8,7,,,,,,,,,,,,,,,515.0911584999994,None,515.0911584999994,None,514.5907487999939,None,f,0.34349299999303184,515.0911584999994,None,,,,,,,,,,,,,,,,,,,,,,,m,001,2021_Jul_08_1338,toilet,2021.1.3,99.85162051868816,
180,0,-4,4,1.15,0,9,9,14,,,,,,,,,,,,,,,516.4520103000104,None,516.4520103000104,None,515.9517579000094,None,j,0.3746367999992799,516.4520103000104,None,,,,,,,,,,,,,,,,,,,,,,,m,001,2021_Jul_08_1338,toilet,2021.1.3,99.85162051868816,
180,180,-4,4,1.15,0,10,10,10,,,,,,,,,,,,,,,517.8329550999915,None,517.8329550999915,None,517.3326089000038,None,j,0.449542400019709,517.8329550999915,None,,,,,,,,,,,,,,,,,,,,,,,m,001,2021_Jul_08_1338,toilet,2021.1.3,99.85162051868816,
0,180,-4,4,1.15,0,11,11,6,,,,,,,,,,,,,,,519.2839413000038,None,519.2839413000038,None,518.7835964999977,None,j,0.29453949999879114,519.2839413000038,None,,,,,,,,,,,,,,,,,,,,,,,m,001,2021_Jul_08_1338,toilet,2021.1.3,99.85162051868816,
0,0,-4,4,0.85,0,12,12,0,,,,,,,,,,,,,,,520.5848265000095,None,520.5848265000095,None,520.0844750000106,None,f,0.5938549000129569,520.5848265000095,None,,,,,,,,,,,,,,,,,,,,,,,m,001,2021_Jul_08_1338,toilet,2021.1.3,99.85162051868816,
0,180,-4,4,0.85,0,13,13,4,,,,,,,,,,,,,,,522.1959187000175,None,522.1959187000175,None,521.6956541000109,None,f,0.4866768999781925,522.1959187000175,None,,,,,,,,,,,,,,,,,,,,,,,m,001,2021_Jul_08_1338,toilet,2021.1.3,99.85162051868816,
180,0,-4,4,0.85,0,14,14,13,,,,,,,,,,,,,,,523.6969237000158,None,523.6969237000158,None,523.196671600017,None,f,0.36152879998553544,523.6969237000158,None,,,,,,,,,,,,,,,,,,,,,,,m,001,2021_Jul_08_1338,toilet,2021.1.3,99.85162051868816,
0,0,-4,4,1.15,0,15,15,2,,,,,,,,,,,,,,,525.0579053999973,None,525.0579053999973,None,524.5575188999937,None,j,0.5205957999860402,525.0579053999973,None,,,,,,,,,,,,,,,,,,,,,,,m,001,2021_Jul_08_1338,toilet,2021.1.3,99.85162051868816,
180,180,4,-4,1.03,,,,,0,0,0,0,0,0,0,39,,,,,,,,,,,,,,,,,525.598224300018,None,space,87.19625079998514,525.598224300018,None,613.7980690000113,None,613.7980690000113,None,613.2977314000018,None,f,0.6124331000028178,613.7980690000113,None,,,,,,,m,001,2021_Jul_08_1338,toilet,2021.1.3,99.85162051868816,
0,0,-4,4,1.15,,,,,0,0,0,0,0,1,1,6,,,,,,,,,,,,,,,,,,,,,,,615.419178000011,None,615.419178000011,None,614.9188316999935,None,j,0.35137509999913163,615.419178000011,None,,,,,,,m,001,2021_Jul_08_1338,toilet,2021.1.3,99.85162051868816,
0,0,4,-4,0.97,,,,,0,0,0,0,0,2,2,9,,,,,,,,,,,,,,,,,,,,,,,616.780096100003,None,616.780096100003,None,616.2797577000165,None,j,0.5583673000219278,616.780096100003,None,,,,,,,m,001,2021_Jul_08_1338,toilet,2021.1.3,99.85162051868816,
0,0,-4,4,0.85,,,,,0,0,0,0,0,3,3,0,,,,,,,,,,,,,,,,,,,,,,,618.3412516000099,None,618.3412516000099,None,617.8408845000085,None,f,0.4054857000010088,618.3412516000099,None,,,,,,,m,001,2021_Jul_08_1338,toilet,2021.1.3,99.85162051868816,
180,0,-4,4,0.85,,,,,0,0,0,0,0,4,4,42,,,,,,,,,,,,,,,,,,,,,,,619.762118100014,None,619.762118100014,None,619.261811000004,None,f,0.5044304000039119,619.762118100014,None,,,,,,,m,001,2021_Jul_08_1338,toilet,2021.1.3,99.85162051868816,
180,0,4,-4,1.0,,,,,0,0,0,0,0,5,5,52,,,,,,,,,,,,,,,,,,,,,,,621.2731991000182,None,621.2731991000182,None,620.7728015000175,None,j,0.353358099993784,621.2731991000182,None,,,,,,,m,001,2021_Jul_08_1338,toilet,2021.1.3,99.85162051868816,
0,180,-4,4,1.03,,,,,0,0,0,0,0,6,6,18,,,,,,,,,,,,,,,,,,,,,,,622.6340602000128,None,622.6340602000128,None,622.133728899993,None,j,0.4484515000076499,622.6340602000128,None,,,,,,,m,001,2021_Jul_08_1338,toilet,2021.1.3,99.85162051868816,
0,0,4,-4,1.03,,,,,0,0,0,0,0,7,7,11,,,,,,,,,,,,,,,,,,,,,,,624.0950591000146,None,624.0950591000146,None,623.5947148000123,None,j,3.307392599992454,624.0950591000146,None,,,,,,,m,001,2021_Jul_08_1338,toilet,2021.1.3,99.85162051868816,
180,0,4,-4,0.85,,,,,0,0,0,0,0,8,8,49,,,,,,,,,,,,,,,,,,,,,,,628.4079863000079,None,628.4079863000079,None,627.9076445999963,None,j,0.46653790000709705,628.4079863000079,None,,,,,,,m,001,2021_Jul_08_1338,toilet,2021.1.3,99.85162051868816,
0,0,-4,4,1.06,,,,,0,0,0,0,0,9,9,5,,,,,,,,,,,,,,,,,,,,,,,629.8789881000121,None,629.8789881000121,None,629.3786459999974,None,j,0.6115732000034768,629.8789881000121,None,,,,,,,m,001,2021_Jul_08_1338,toilet,2021.1.3,99.85162051868816,
180,0,4,-4,1.15,,,,,0,0,0,0,0,10,10,55,,,,,,,,,,,,,,,,,,,,,,,631.5100916000083,None,631.5100916000083,None,631.0097547000041,None,f,1.1084647999959998,631.5100916000083,None,,,,,,,m,001,2021_Jul_08_1338,toilet,2021.1.3,99.85162051868816,
180,180,4,-4,1.06,,,,,0,0,0,0,0,11,11,40,,,,,,,,,,,,,,,,,,,,,,,633.6216057999991,None,633.6216057999991,None,633.1212765999953,None,f,0.5330735999741592,633.6216057999991,None,,,,,,,m,001,2021_Jul_08_1338,toilet,2021.1.3,99.85162051868816,
180,180,-4,4,1.03,,,,,0,0,0,0,0,12,12,32,,,,,,,,,,,,,,,,,,,,,,,635.1725836000114,None,635.1725836000114,None,634.6722339999978,None,j,0.5019670999899972,635.1725836000114,None,,,,,,,m,001,2021_Jul_08_1338,toilet,2021.1.3,99.85162051868816,
180,180,4,-4,0.94,,,,,0,0,0,0,0,13,13,36,,,,,,,,,,,,,,,,,,,,,,,636.6836016000016,None,636.6836016000016,None,636.1832656000042,None,j,0.6228327999997418,636.6836016000016,None,,,,,,,m,001,2021_Jul_08_1338,toilet,2021.1.3,99.85162051868816,
180,180,-4,4,1.15,,,,,0,0,0,0,0,14,14,34,,,,,,,,,,,,,,,,,,,,,,,638.3147127999982,None,638.3147127999982,None,637.8143707000127,None,j,0.6718581999884918,638.3147127999982,None,,,,,,,m,001,2021_Jul_08_1338,toilet,2021.1.3,99.85162051868816,
0,180,4,-4,0.85,,,,,0,0,0,0,0,15,15,21,,,,,,,,,,,,,,,,,,,,,,,640.0059314999962,None,640.0059314999962,None,639.5056082000083,None,j,0.6127262999943923,640.0059314999962,None,,,,,,,m,001,2021_Jul_08_1338,toilet,2021.1.3,99.85162051868816,
0,180,4,-4,1.15,,,,,0,0,0,0,0,16,16,27,,,,,,,,,,,,,,,,,,,,,,,641.6369781999965,None,641.6369781999965,None,641.1366983000189,None,f,0.9974664999754168,641.6369781999965,None,,,,,,,m,001,2021_Jul_08_1338,toilet,2021.1.3,99.85162051868816,
0,180,4,-4,1.03,,,,,0,0,0,0,0,17,17,25,,,,,,,,,,,,,,,,,,,,,,,643.6383227999904,None,643.6383227999904,None,643.1379833999963,None,f,1.8920459999935701,643.6383227999904,None,,,,,,,m,001,2021_Jul_08_1338,toilet,2021.1.3,99.85162051868816,
180,0,-4,4,0.94,,,,,0,0,0,0,0,18,18,43,,,,,,,,,,,,,,,,,,,,,,,646.5302770000126,None,646.5302770000126,None,646.0299416999915,None,j,0.8721743999922182,646.5302770000126,None,,,,,,,m,001,2021_Jul_08_1338,toilet,2021.1.3,99.85162051868816,
180,0,-4,4,0.97,,,,,0,0,0,0,0,19,19,44,,,,,,,,,,,,,,,,,,,,,,,648.4116350999975,None,648.4116350999975,None,647.9112987999979,None,j,0.6708892000024207,648.4116350999975,None,,,,,,,m,001,2021_Jul_08_1338,toilet,2021.1.3,99.85162051868816,
180,180,4,-4,0.97,,,,,0,0,0,0,0,20,20,37,,,,,,,,,,,,,,,,,,,,,,,650.0826960999984,None,650.0826960999984,None,649.5823545000167,None,j,0.6477276999794412,650.0826960999984,None,,,,,,,m,001,2021_Jul_08_1338,toilet,2021.1.3,99.85162051868816,
0,180,4,-4,0.94,,,,,0,0,0,0,0,21,21,22,,,,,,,,,,,,,,,,,,,,,,,651.7438238000032,None,651.7438238000032,None,651.2434828999976,None,j,0.602680700016208,651.7438238000032,None,,,,,,,m,001,2021_Jul_08_1338,toilet,2021.1.3,99.85162051868816,
0,180,-4,4,0.85,,,,,0,0,0,0,0,22,22,14,,,,,,,,,,,,,,,,,,,,,,,653.3649223000102,None,653.3649223000102,None,652.8645787000132,None,f,0.6616867000120692,653.3649223000102,None,,,,,,,m,001,2021_Jul_08_1338,toilet,2021.1.3,99.85162051868816,
180,180,-4,4,0.97,,,,,0,0,0,0,0,23,23,30,,,,,,,,,,,,,,,,,,,,,,,655.0361365000135,None,655.0361365000135,None,654.5357137999963,None,f,0.8464964000158943,655.0361365000135,None,,,,,,,m,001,2021_Jul_08_1338,toilet,2021.1.3,99.85162051868816,
0,180,-4,4,0.97,,,,,0,0,0,0,0,24,24,16,,,,,,,,,,,,,,,,,,,,,,,656.8973197000159,None,656.8973197000159,None,656.3969793000142,None,f,1.6572414000111166,656.8973197000159,None,,,,,,,m,001,2021_Jul_08_1338,toilet,2021.1.3,99.85162051868816,
180,0,-4,4,1.06,,,,,0,0,0,0,0,25,25,47,,,,,,,,,,,,,,,,,,,,,,,659.5691178000125,None,659.5691178000125,None,659.0687882000057,None,j,0.8576210000028368,659.5691178000125,None,,,,,,,m,001,2021_Jul_08_1338,toilet,2021.1.3,99.85162051868816,
180,180,-4,4,1.06,,,,,0,0,0,0,0,26,26,33,,,,,,,,,,,,,,,,,,,,,,,661.4403999999922,None,661.4403999999922,None,660.9400605999981,None,j,1.354257900005905,661.4403999999922,None,,,,,,,m,001,2021_Jul_08_1338,toilet,2021.1.3,99.85162051868816,
180,180,-4,4,0.85,,,,,0,0,0,0,0,27,27,28,,,,,,,,,,,,,,,,,,,,,,,663.8120090000157,None,663.8120090000157,None,663.3117601000122,None,f,0.6944986000016797,663.8120090000157,None,,,,,,,m,001,2021_Jul_08_1338,toilet,2021.1.3,99.85162051868816,
180,0,-4,4,1.0,,,,,0,0,0,0,0,28,28,45,,,,,,,,,,,,,,,,,,,,,,,665.5131676000019,None,665.5131676000019,None,665.0128256000171,None,j,0.9613800000224728,665.5131676000019,None,,,,,,,m,001,2021_Jul_08_1338,toilet,2021.1.3,99.85162051868816,
180,180,-4,4,0.94,,,,,0,0,0,0,0,29,29,29,,,,,,,,,,,,,,,,,,,,,,,667.4744957000075,None,667.4744957000075,None,666.9741571999912,None,f,1.0962261999957263,667.4744957000075,None,,,,,,,m,001,2021_Jul_08_1338,toilet,2021.1.3,99.85162051868816,
0,0,-4,4,1.0,,,,,0,0,0,0,0,30,30,3,,,,,,,,,,,,,,,,,,,,,,,669.5860202000185,None,669.5860202000185,None,669.0855921000184,None,j,1.1925310000078753,669.5860202000185,None,,,,,,,m,001,2021_Jul_08_1338,toilet,2021.1.3,99.85162051868816,
180,0,4,-4,1.06,,,,,0,0,0,0,0,31,31,54,,,,,,,,,,,,,,,,,,,,,,,671.7974345000111,None,671.7974345000111,None,671.2970906000119,None,f,1.8452623000193853,671.7974345000111,None,,,,,,,m,001,2021_Jul_08_1338,toilet,2021.1.3,99.85162051868816,
0,180,4,-4,1.06,,,,,0,0,0,0,0,32,32,26,,,,,,,,,,,,,,,,,,,,,,,674.6693804000097,None,674.6693804000097,None,674.1690425999986,None,f,1.3730770999973174,674.6693804000097,None,,,,,,,m,001,2021_Jul_08_1338,toilet,2021.1.3,99.85162051868816,
0,0,4,-4,0.85,,,,,0,0,0,0,0,33,33,7,,,,,,,,,,,,,,,,,,,,,,,677.0510832,None,677.0510832,None,676.5507431000005,None,j,0.8953460999764502,677.0510832,None,,,,,,,m,001,2021_Jul_08_1338,toilet,2021.1.3,99.85162051868816,
0,0,4,-4,1.15,,,,,0,0,0,0,0,34,34,13,,,,,,,,,,,,,,,,,,,,,,,678.9522916999995,None,678.9522916999995,None,678.4519447000057,None,f,0.8822227000200655,678.9522916999995,None,,,,,,,m,001,2021_Jul_08_1338,toilet,2021.1.3,99.85162051868816,
0,0,4,-4,0.94,,,,,0,0,0,0,0,35,35,8,,,,,,,,,,,,,,,,,,,,,,,680.8335648000066,None,680.8335648000066,None,680.3332204000035,None,j,0.6009085999976378,680.8335648000066,None,,,,,,,m,001,2021_Jul_08_1338,toilet,2021.1.3,99.85162051868816,
0,180,4,-4,1.0,,,,,0,0,0,0,0,36,36,24,,,,,,,,,,,,,,,,,,,,,,,682.4446501999919,None,682.4446501999919,None,681.9443196000066,None,j,0.6537868999876082,682.4446501999919,None,,,,,,,m,001,2021_Jul_08_1338,toilet,2021.1.3,99.85162051868816,
0,180,-4,4,0.94,,,,,0,0,0,0,0,37,37,15,,,,,,,,,,,,,,,,,,,,,,,684.1058701000002,None,684.1058701000002,None,683.6054380999994,None,f,0.9448184999928344,684.1058701000002,None,,,,,,,m,001,2021_Jul_08_1338,toilet,2021.1.3,99.85162051868816,
180,180,4,-4,0.85,,,,,0,0,0,0,0,38,38,35,,,,,,,,,,,,,,,,,,,,,,,686.0671112000127,None,686.0671112000127,None,685.5667726999964,None,j,0.6634172000049148,686.0671112000127,None,,,,,,,m,001,2021_Jul_08_1338,toilet,2021.1.3,99.85162051868816,
180,0,4,-4,1.03,,,,,0,0,0,0,0,39,39,53,,,,,,,,,,,,,,,,,,,,,,,687.7382455999905,None,687.7382455999905,None,687.2379084000131,None,f,0.6722442999889608,687.7382455999905,None,,,,,,,m,001,2021_Jul_08_1338,toilet,2021.1.3,99.85162051868816,
0,0,4,-4,1.0,,,,,0,0,0,0,0,40,40,10,,,,,,,,,,,,,,,,,,,,,,,689.4193816000188,None,689.4193816000188,None,688.9190846999991,None,f,1.023220599978231,689.4193816000188,None,,,,,,,m,001,2021_Jul_08_1338,toilet,2021.1.3,99.85162051868816,
180,180,4,-4,1.15,,,,,0,0,0,0,0,41,41,41,,,,,,,,,,,,,,,,,,,,,,,691.4608461000025,None,691.4608461000025,None,690.960433100001,None,f,0.4696354999905452,691.4608461000025,None,,,,,,,m,001,2021_Jul_08_1338,toilet,2021.1.3,99.85162051868816,
180,0,4,-4,0.94,,,,,0,0,0,0,0,42,42,50,,,,,,,,,,,,,,,,,,,,,,,692.9417894000071,None,692.9417894000071,None,692.4414199000166,None,j,0.6046365999791306,692.9417894000071,None,,,,,,,m,001,2021_Jul_08_1338,toilet,2021.1.3,99.85162051868816,
180,0,-4,4,1.03,,,,,0,0,0,0,0,43,43,46,,,,,,,,,,,,,,,,,,,,,,,694.5528592999908,None,694.5528592999908,None,694.0525281000009,None,j,0.5616086000227369,694.5528592999908,None,,,,,,,m,001,2021_Jul_08_1338,toilet,2021.1.3,99.85162051868816,
0,0,-4,4,0.97,,,,,0,0,0,0,0,44,44,2,,,,,,,,,,,,,,,,,,,,,,,696.1139317000052,None,696.1139317000052,None,695.6135905999981,None,f,0.9205702000181191,696.1139317000052,None,,,,,,,m,001,2021_Jul_08_1338,toilet,2021.1.3,99.85162051868816,
0,0,4,-4,1.06,,,,,0,0,0,0,0,45,45,12,,,,,,,,,,,,,,,,,,,,,,,698.0452357000031,None,698.0452357000031,None,697.544896700012,None,f,0.6212940000114031,698.0452357000031,None,,,,,,,m,001,2021_Jul_08_1338,toilet,2021.1.3,99.85162051868816,
0,180,-4,4,1.15,,,,,0,0,0,0,0,46,46,20,,,,,,,,,,,,,,,,,,,,,,,699.6763810999983,None,699.6763810999983,None,699.176011100004,None,j,0.5421487000130583,699.6763810999983,None,,,,,,,m,001,2021_Jul_08_1338,toilet,2021.1.3,99.85162051868816,
0,0,-4,4,0.94,,,,,0,0,0,0,0,47,47,1,,,,,,,,,,,,,,,,,,,,,,,701.2374049999926,None,701.2374049999926,None,700.7370665000053,None,j,3.7971587000065483,701.2374049999926,None,,,,,,,m,001,2021_Jul_08_1338,toilet,2021.1.3,99.85162051868816,
180,0,-4,4,1.15,,,,,0,0,0,0,0,48,48,48,,,,,,,,,,,,,,,,,,,,,,,706.0507460999943,None,706.0507460999943,None,705.5503353000095,None,j,0.5197304000030272,706.0507460999943,None,,,,,,,m,001,2021_Jul_08_1338,toilet,2021.1.3,99.85162051868816,
180,180,4,-4,1.0,,,,,0,0,0,0,0,49,49,38,,,,,,,,,,,,,,,,,,,,,,,707.5817461000115,None,707.5817461000115,None,707.0814472000056,None,f,0.508653900003992,707.5817461000115,None,,,,,,,m,001,2021_Jul_08_1338,toilet,2021.1.3,99.85162051868816,
180,180,-4,4,1.0,,,,,0,0,0,0,0,50,50,31,,,,,,,,,,,,,,,,,,,,,,,709.0927476999932,None,709.0927476999932,None,708.5923971000011,None,j,0.8538412999769207,709.0927476999932,None,,,,,,,m,001,2021_Jul_08_1338,toilet,2021.1.3,99.85162051868816,
0,0,-4,4,1.03,,,,,0,0,0,0,0,51,51,4,,,,,,,,,,,,,,,,,,,,,,,710.9640073000046,None,710.9640073000046,None,710.4636644000129,None,j,0.5343975000141654,710.9640073000046,None,,,,,,,m,001,2021_Jul_08_1338,toilet,2021.1.3,99.85162051868816,
180,0,4,-4,0.97,,,,,0,0,0,0,0,52,52,51,,,,,,,,,,,,,,,,,,,,,,,712.5050510000146,None,712.5050510000146,None,712.004714700015,None,j,0.9134833000134677,712.5050510000146,None,,,,,,,m,001,2021_Jul_08_1338,toilet,2021.1.3,99.85162051868816,
0,180,4,-4,0.97,,,,,0,0,0,0,0,53,53,23,,,,,,,,,,,,,,,,,,,,,,,714.4264297999907,None,714.4264297999907,None,713.9261024000007,None,j,0.6400450000073761,714.4264297999907,None,,,,,,,m,001,2021_Jul_08_1338,toilet,2021.1.3,99.85162051868816,
0,180,-4,4,1.0,,,,,0,0,0,0,0,54,54,17,,,,,,,,,,,,,,,,,,,,,,,716.0774725000083,None,716.0774725000083,None,715.5771335000172,None,j,3.8210153999971226,716.0774725000083,None,,,,,,,m,001,2021_Jul_08_1338,toilet,2021.1.3,99.85162051868816,
0,180,-4,4,1.06,,,,,0,0,0,0,0,55,55,19,,,,,,,,,,,,,,,,,,,,,,,720.9107576000097,None,720.9107576000097,None,720.410483899992,None,j,4.715779699996347,720.9107576000097,None,,,,,,,m,001,2021_Jul_08_1338,toilet,2021.1.3,99.85162051868816,
0,0,-4,4,1.15,,,,,0,0,0,0,1,0,56,6,,,,,,,,,,,,,,,,,,,,,,,726.644643800013,None,726.644643800013,None,726.1442973999947,None,j,0.5018786000146065,726.644643800013,None,,,,,,,m,001,2021_Jul_08_1338,toilet,2021.1.3,99.85162051868816,
180,0,-4,4,1.15,,,,,0,0,0,0,1,1,57,48,,,,,,,,,,,,,,,,,,,,,,,728.1557660000108,None,728.1557660000108,None,727.655327400018,None,j,0.7828488000086509,728.1557660000108,None,,,,,,,m,001,2021_Jul_08_1338,toilet,2021.1.3,99.85162051868816,
180,180,4,-4,0.94,,,,,0,0,0,0,1,2,58,36,,,,,,,,,,,,,,,,,,,,,,,729.9568903000036,None,729.9568903000036,None,729.4566410999978,None,f,1.1735674000228755,729.9568903000036,None,,,,,,,m,001,2021_Jul_08_1338,toilet,2021.1.3,99.85162051868816,
180,0,-4,4,0.94,,,,,0,0,0,0,1,3,59,43,,,,,,,,,,,,,,,,,,,,,,,732.1383780000033,None,732.1383780000033,None,731.6380390000122,None,f,1.6482004999998026,732.1383780000033,None,,,,,,,m,001,2021_Jul_08_1338,toilet,2021.1.3,99.85162051868816,
180,180,-4,4,1.06,,,,,0,0,0,0,1,4,60,33,,,,,,,,,,,,,,,,,,,,,,,734.800209900015,None,734.800209900015,None,734.2998408999993,None,j,0.6182774999761023,734.800209900015,None,,,,,,,m,001,2021_Jul_08_1338,toilet,2021.1.3,99.85162051868816,
0,180,4,-4,0.94,,,,,0,0,0,0,1,5,61,22,,,,,,,,,,,,,,,,,,,,,,,736.4313182000187,None,736.4313182000187,None,735.9310411000042,None,j,0.539224500011187,736.4313182000187,None,,,,,,,m,001,2021_Jul_08_1338,toilet,2021.1.3,99.85162051868816,
0,0,-4,4,0.97,,,,,0,0,0,0,1,6,62,2,,,,,,,,,,,,,,,,,,,,,,,737.9823736000108,None,737.9823736000108,None,737.4819986000075,None,j,1.1000790999969468,737.9823736000108,None,,,,,,,m,001,2021_Jul_08_1338,toilet,2021.1.3,99.85162051868816,
180,0,4,-4,1.06,,,,,0,0,0,0,1,7,63,54,,,,,,,,,,,,,,,,,,,,,,,740.0937728999997,None,740.0937728999997,None,739.5934388000169,None,f,0.8927549000072759,740.0937728999997,None,,,,,,,m,001,2021_Jul_08_1338,toilet,2021.1.3,99.85162051868816,
0,180,-4,4,1.0,,,,,0,0,0,0,1,8,64,17,,,,,,,,,,,,,,,,,,,,,,,742.0050708999916,None,742.0050708999916,None,741.5047307999921,None,j,0.6455634000012651,742.0050708999916,None,,,,,,,m,001,2021_Jul_08_1338,toilet,2021.1.3,99.85162051868816,
180,180,4,-4,0.97,,,,,0,0,0,0,1,9,65,37,,,,,,,,,,,,,,,,,,,,,,,743.666195400001,None,743.666195400001,None,743.1659459999937,None,j,0.6644628000212833,743.666195400001,None,,,,,,,m,001,2021_Jul_08_1338,toilet,2021.1.3,99.85162051868816,
0,0,-4,4,1.06,,,,,0,0,0,0,1,10,66,5,,,,,,,,,,,,,,,,,,,,,,,745.3473371000146,None,745.3473371000146,None,744.8469876000017,None,j,0.631158600008348,745.3473371000146,None,,,,,,,m,001,2021_Jul_08_1338,toilet,2021.1.3,99.85162051868816,
180,0,4,-4,0.97,,,,,0,0,0,0,1,11,67,51,,,,,,,,,,,,,,,,,,,,,,,746.9784439000068,None,746.9784439000068,None,746.4781023999967,None,f,0.6320543000183534,746.9784439000068,None,,,,,,,m,001,2021_Jul_08_1338,toilet,2021.1.3,99.85162051868816,
0,0,4,-4,0.85,,,,,0,0,0,0,1,12,68,7,,,,,,,,,,,,,,,,,,,,,,,748.6195519000175,None,748.6195519000175,None,748.119225500006,None,j,0.43091460000141524,748.6195519000175,None,,,,,,,m,001,2021_Jul_08_1338,toilet,2021.1.3,99.85162051868816,
0,180,-4,4,0.85,,,,,0,0,0,0,1,13,69,14,,,,,,,,,,,,,,,,,,,,,,,750.0606267999974,None,750.0606267999974,None,749.5601967000111,None,f,0.39792709998437203,750.0606267999974,None,,,,,,,m,001,2021_Jul_08_1338,toilet,2021.1.3,99.85162051868816,
0,180,4,-4,1.03,,,,,0,0,0,0,1,14,70,25,,,,,,,,,,,,,,,,,,,,,,,751.4715680000081,None,751.4715680000081,None,750.9711496999953,None,f,0.9549187000084203,751.4715680000081,None,,,,,,,m,001,2021_Jul_08_1338,toilet,2021.1.3,99.85162051868816,
180,180,-4,4,1.0,,,,,0,0,0,0,1,15,71,31,,,,,,,,,,,,,,,,,,,,,,,753.4328174999973,None,753.4328174999973,None,752.932478600007,None,f,0.5456493999809027,753.4328174999973,None,,,,,,,m,001,2021_Jul_08_1338,toilet,2021.1.3,99.85162051868816,
180,0,4,-4,0.94,,,,,0,0,0,0,1,16,72,50,,,,,,,,,,,,,,,,,,,,,,,754.9838747000031,None,754.9838747000031,None,754.4835329999914,None,j,0.4506876000086777,754.9838747000031,None,,,,,,,m,001,2021_Jul_08_1338,toilet,2021.1.3,99.85162051868816,
180,0,-4,4,0.85,,,,,0,0,0,0,1,17,73,42,,,,,,,,,,,,,,,,,,,,,,,756.4448670000129,None,756.4448670000129,None,755.9445224000083,None,f,0.44578479998745024,756.4448670000129,None,,,,,,,m,001,2021_Jul_08_1338,toilet,2021.1.3,99.85162051868816,
180,180,-4,4,0.97,,,,,0,0,0,0,1,18,74,30,,,,,,,,,,,,,,,,,,,,,,,757.9059420000121,None,757.9059420000121,None,757.4055134000082,None,f,0.9204427000076976,757.9059420000121,None,,,,,,,m,001,2021_Jul_08_1338,toilet,2021.1.3,99.85162051868816,
0,180,-4,4,1.03,,,,,0,0,0,0,1,19,75,18,,,,,,,,,,,,,,,,,,,,,,,759.8271612999961,None,759.8271612999961,None,759.3268382000097,None,j,0.7113227000227198,759.8271612999961,None,,,,,,,m,001,2021_Jul_08_1338,toilet,2021.1.3,99.85162051868816,
180,180,-4,4,1.15,,,,,0,0,0,0,1,20,76,34,,,,,,,,,,,,,,,,,,,,,,,761.5383216000046,None,761.5383216000046,None,761.0379862000118,None,j,0.4721776000224054,761.5383216000046,None,,,,,,,m,001,2021_Jul_08_1338,toilet,2021.1.3,99.85162051868816,
0,180,4,-4,1.06,,,,,0,0,0,0,1,21,77,26,,,,,,,,,,,,,,,,,,,,,,,763.0193299000093,None,763.0193299000093,None,762.5189844999986,None,f,0.591122899990296,763.0193299000093,None,,,,,,,m,001,2021_Jul_08_1338,toilet,2021.1.3,99.85162051868816,
180,0,4,-4,1.03,,,,,0,0,0,0,1,22,78,53,,,,,,,,,,,,,,,,,,,,,,,764.6205050999997,None,764.6205050999997,None,764.1200788000133,None,f,0.5899112999904901,764.6205050999997,None,,,,,,,m,001,2021_Jul_08_1338,toilet,2021.1.3,99.85162051868816,
180,0,4,-4,0.85,,,,,0,0,0,0,1,23,79,49,,,,,,,,,,,,,,,,,,,,,,,766.2215686000127,None,766.2215686000127,None,765.7212338999962,None,j,0.3968466999940574,766.2215686000127,None,,,,,,,m,001,2021_Jul_08_1338,toilet,2021.1.3,99.85162051868816,
0,0,-4,4,0.94,,,,,0,0,0,0,1,24,80,1,,,,,,,,,,,,,,,,,,,,,,,767.6324600999942,None,767.6324600999942,None,767.1321124999959,None,f,0.4579983000003267,767.6324600999942,None,,,,,,,m,001,2021_Jul_08_1338,toilet,2021.1.3,99.85162051868816,
0,180,4,-4,0.85,,,,,0,0,0,0,1,25,81,21,,,,,,,,,,,,,,,,,,,,,,,769.0934401999984,None,769.0934401999984,None,768.5931024000165,None,j,0.43695169998682104,769.0934401999984,None,,,,,,,m,001,2021_Jul_08_1338,toilet,2021.1.3,99.85162051868816,
0,0,4,-4,1.06,,,,,0,0,0,0,1,26,82,12,,,,,,,,,,,,,,,,,,,,,,,770.5344199000101,None,770.5344199000101,None,770.0340819999983,None,f,0.4359773000178393,770.5344199000101,None,,,,,,,m,001,2021_Jul_08_1338,toilet,2021.1.3,99.85162051868816,
180,0,-4,4,1.0,,,,,0,0,0,0,1,27,83,45,,,,,,,,,,,,,,,,,,,,,,,771.9754720999917,None,771.9754720999917,None,771.4750661000144,None,f,0.3709808000130579,771.9754720999917,None,,,,,,,m,001,2021_Jul_08_1338,toilet,2021.1.3,99.85162051868816,
180,180,-4,4,1.03,,,,,0,0,0,0,1,28,84,32,,,,,,,,,,,,,,,,,,,,,,,773.3564263000153,None,773.3564263000153,None,772.8560037999996,None,j,0.5261086999962572,773.3564263000153,None,,,,,,,m,001,2021_Jul_08_1338,toilet,2021.1.3,99.85162051868816,
180,0,-4,4,1.03,,,,,0,0,0,0,1,29,85,46,,,,,,,,,,,,,,,,,,,,,,,774.8973838000093,None,774.8973838000093,None,774.3970407000161,None,f,0.40901850000955164,774.8973838000093,None,,,,,,,m,001,2021_Jul_08_1338,toilet,2021.1.3,99.85162051868816,
0,180,4,-4,0.97,,,,,0,0,0,0,1,30,86,23,,,,,,,,,,,,,,,,,,,,,,,776.3083389000094,None,776.3083389000094,None,775.8079998000176,None,j,0.6780372000066563,776.3083389000094,None,,,,,,,m,001,2021_Jul_08_1338,toilet,2021.1.3,99.85162051868816,
180,0,-4,4,0.97,,,,,0,0,0,0,1,31,87,44,,,,,,,,,,,,,,,,,,,,,,,777.9894864000089,None,777.9894864000089,None,777.4891406999959,None,f,0.4529884000075981,777.9894864000089,None,,,,,,,m,001,2021_Jul_08_1338,toilet,2021.1.3,99.85162051868816,
180,180,4,-4,1.15,,,,,0,0,0,0,1,32,88,41,,,,,,,,,,,,,,,,,,,,,,,779.4505435000174,None,779.4505435000174,None,778.9501373000094,None,f,0.39990129999932833,779.4505435000174,None,,,,,,,m,001,2021_Jul_08_1338,toilet,2021.1.3,99.85162051868816,
180,180,-4,4,0.94,,,,,0,0,0,0,1,33,89,29,,,,,,,,,,,,,,,,,,,,,,,780.8614981000137,None,780.8614981000137,None,780.3610837000015,None,f,0.5249836000148207,780.8614981000137,None,,,,,,,m,001,2021_Jul_08_1338,toilet,2021.1.3,99.85162051868816,
180,0,4,-4,1.0,,,,,0,0,0,0,1,34,90,52,,,,,,,,,,,,,,,,,,,,,,,782.4024749000091,None,782.4024749000091,None,781.9021350000112,None,j,0.39200829999754205,782.4024749000091,None,,,,,,,m,001,2021_Jul_08_1338,toilet,2021.1.3,99.85162051868816,
0,0,4,-4,0.94,,,,,0,0,0,0,1,35,91,8,,,,,,,,,,,,,,,,,,,,,,,783.8034297999984,None,783.8034297999984,None,783.3030935999996,None,j,0.4310247000248637,783.8034297999984,None,,,,,,,m,001,2021_Jul_08_1338,toilet,2021.1.3,99.85162051868816,
0,180,4,-4,1.15,,,,,0,0,0,0,1,36,92,27,,,,,,,,,,,,,,,,,,,,,,,785.2444012000051,None,785.2444012000051,None,784.7440678999992,None,f,0.3980864000041038,785.2444012000051,None,,,,,,,m,001,2021_Jul_08_1338,toilet,2021.1.3,99.85162051868816,
0,0,-4,4,1.03,,,,,0,0,0,0,1,37,93,4,,,,,,,,,,,,,,,,,,,,,,,786.6554388999939,None,786.6554388999939,None,786.1550208000117,None,j,0.49102690001018345,786.6554388999939,None,,,,,,,m,001,2021_Jul_08_1338,toilet,2021.1.3,99.85162051868816,
0,180,-4,4,0.97,,,,,0,0,0,0,1,38,94,16,,,,,,,,,,,,,,,,,,,,,,,788.1564633999951,None,788.1564633999951,None,787.6561090000032,None,f,0.5260050999931991,788.1564633999951,None,,,,,,,m,001,2021_Jul_08_1338,toilet,2021.1.3,99.85162051868816,
0,180,4,-4,1.0,,,,,0,0,0,0,1,39,95,24,,,,,,,,,,,,,,,,,,,,,,,789.6974268000049,None,789.6974268000049,None,789.197083600011,None,j,0.6809464000107255,789.6974268000049,None,,,,,,,m,001,2021_Jul_08_1338,toilet,2021.1.3,99.85162051868816,
180,0,4,-4,1.15,,,,,0,0,0,0,1,40,96,55,,,,,,,,,,,,,,,,,,,,,,,791.3785651999933,None,791.3785651999933,None,790.8782225000032,None,f,0.6481430999992881,791.3785651999933,None,,,,,,,m,001,2021_Jul_08_1338,toilet,2021.1.3,99.85162051868816,
0,0,-4,4,1.0,,,,,0,0,0,0,1,41,97,3,,,,,,,,,,,,,,,,,,,,,,,793.0396958999918,None,793.0396958999918,None,792.5393574000045,None,j,0.7308484999812208,793.0396958999918,None,,,,,,,m,001,2021_Jul_08_1338,toilet,2021.1.3,99.85162051868816,
180,180,4,-4,1.06,,,,,0,0,0,0,1,42,98,40,,,,,,,,,,,,,,,,,,,,,,,794.770952299994,None,794.770952299994,None,794.2805374000163,None,f,0.4715705999988131,794.770952299994,None,,,,,,,m,001,2021_Jul_08_1338,toilet,2021.1.3,99.85162051868816,
180,180,-4,4,0.85,,,,,0,0,0,0,1,43,99,28,,,,,,,,,,,,,,,,,,,,,,,796.2518771000032,None,796.2518771000032,None,795.7516267000174,None,f,0.49455180001677945,796.2518771000032,None,,,,,,,m,001,2021_Jul_08_1338,toilet,2021.1.3,99.85162051868816,
0,0,4,-4,0.97,,,,,0,0,0,0,1,44,100,9,,,,,,,,,,,,,,,,,,,,,,,797.7528926999948,None,797.7528926999948,None,797.2525487999956,None,j,0.6254919999919366,797.7528926999948,None,,,,,,,m,001,2021_Jul_08_1338,toilet,2021.1.3,99.85162051868816,
0,180,-4,4,0.94,,,,,0,0,0,0,1,45,101,15,,,,,,,,,,,,,,,,,,,,,,,799.3840030000138,None,799.3840030000138,None,798.8836649000004,None,f,0.898597699997481,799.3840030000138,None,,,,,,,m,001,2021_Jul_08_1338,toilet,2021.1.3,99.85162051868816,
0,0,4,-4,1.15,,,,,0,0,0,0,1,46,102,13,,,,,,,,,,,,,,,,,,,,,,,801.2953669000126,None,801.2953669000126,None,800.7949569000048,None,f,0.5711065000214148,801.2953669000126,None,,,,,,,m,001,2021_Jul_08_1338,toilet,2021.1.3,99.85162051868816,
180,180,4,-4,1.03,,,,,0,0,0,0,1,47,103,39,,,,,,,,,,,,,,,,,,,,,,,802.8763668000174,None,802.8763668000174,None,802.3761136000103,None,f,1.5020412000012584,802.8763668000174,None,,,,,,,m,001,2021_Jul_08_1338,toilet,2021.1.3,99.85162051868816,
0,0,4,-4,1.03,,,,,0,0,0,0,1,48,104,11,,,,,,,,,,,,,,,,,,,,,,,805.3780620000034,None,805.3780620000034,None,804.87772270001,None,j,0.7603703000058886,805.3780620000034,None,,,,,,,m,001,2021_Jul_08_1338,toilet,2021.1.3,99.85162051868816,
0,0,4,-4,1.0,,,,,0,0,0,0,1,49,105,10,,,,,,,,,,,,,,,,,,,,,,,807.139262200013,None,807.139262200013,None,806.6389136000071,None,j,0.5191827999951784,807.139262200013,None,,,,,,,m,001,2021_Jul_08_1338,toilet,2021.1.3,99.85162051868816,
0,0,-4,4,0.85,,,,,0,0,0,0,1,50,106,0,,,,,,,,,,,,,,,,,,,,,,,808.6703118000005,None,808.6703118000005,None,808.1699579000124,None,f,0.42805660000885837,808.6703118000005,None,,,,,,,m,001,2021_Jul_08_1338,toilet,2021.1.3,99.85162051868816,
180,180,4,-4,1.0,,,,,0,0,0,0,1,51,107,38,,,,,,,,,,,,,,,,,,,,,,,810.1013498000102,None,810.1013498000102,None,809.6010231999971,None,j,1.381245399999898,810.1013498000102,None,,,,,,,m,001,2021_Jul_08_1338,toilet,2021.1.3,99.85162051868816,
0,180,-4,4,1.15,,,,,0,0,0,0,1,52,108,20,,,,,,,,,,,,,,,,,,,,,,,812.4828830000188,None,812.4828830000188,None,811.9825436999963,None,j,0.5835423999815248,812.4828830000188,None,,,,,,,m,001,2021_Jul_08_1338,toilet,2021.1.3,99.85162051868816,
180,0,-4,4,1.06,,,,,0,0,0,0,1,53,109,47,,,,,,,,,,,,,,,,,,,,,,,814.0739643000124,None,814.0739643000124,None,813.5736313000089,None,j,0.6085015000135172,814.0739643000124,None,,,,,,,m,001,2021_Jul_08_1338,toilet,2021.1.3,99.85162051868816,
180,180,4,-4,0.85,,,,,0,0,0,0,1,54,110,35,,,,,,,,,,,,,,,,,,,,,,,815.6950627000188,None,815.6950627000188,None,815.1947269999946,None,j,0.5393789999943692,815.6950627000188,None,,,,,,,m,001,2021_Jul_08_1338,toilet,2021.1.3,99.85162051868816,
0,180,-4,4,1.06,,,,,0,0,0,0,1,55,111,19,,,,,,,,,,,,,,,,,,,,,,,817.2462010000017,None,817.2462010000017,None,816.7457941000175,None,j,1.116148599976441,817.2462010000017,None,,,,,,,m,001,2021_Jul_08_1338,toilet,2021.1.3,99.85162051868816,
,,,,,,,,,0,0,0,0,,,,,,,,,,,,,,,,,,,,,,,,,,,,,,,,,,,,,818.3868652000092,None,space,3.2074910000083037,818.3868652000092,None,m,001,2021_Jul_08_1338,toilet,2021.1.3,99.85162051868816,
180,180,-4,4,1.03,,,,,1,0,1,0,0,0,0,32,,,,,,,,,,,,,,,,,821.6190831999993,None,space,52.19951719997334,821.6190831999993,None,874.845195300004,None,874.845195300004,None,874.344857899996,None,j,0.6373656000068877,874.845195300004,None,,,,,,,m,001,2021_Jul_08_1338,toilet,2021.1.3,99.85162051868816,
0,0,-4,4,1.06,,,,,1,0,1,0,0,1,1,5,,,,,,,,,,,,,,,,,,,,,,,876.496384500002,None,876.496384500002,None,875.9960580999905,None,j,0.42606569998315535,876.496384500002,None,,,,,,,m,001,2021_Jul_08_1338,toilet,2021.1.3,99.85162051868816,
0,0,-4,4,1.0,,,,,1,0,1,0,0,2,2,3,,,,,,,,,,,,,,,,,,,,,,,877.9372967999952,None,877.9372967999952,None,877.4369458000001,None,j,0.5212304999877233,877.9372967999952,None,,,,,,,m,001,2021_Jul_08_1338,toilet,2021.1.3,99.85162051868816,
0,180,4,-4,0.94,,,,,1,0,1,0,0,3,3,22,,,,,,,,,,,,,,,,,,,,,,,879.4583188999968,None,879.4583188999968,None,878.9579726000084,None,j,0.856295899982797,879.4583188999968,None,,,,,,,m,001,2021_Jul_08_1338,toilet,2021.1.3,99.85162051868816,
0,180,-4,4,1.0,,,,,1,0,1,0,0,4,4,17,,,,,,,,,,,,,,,,,,,,,,,881.3295849999995,None,881.3295849999995,None,880.8292489000014,None,f,1.112722499994561,881.3295849999995,None,,,,,,,m,001,2021_Jul_08_1338,toilet,2021.1.3,99.85162051868816,
180,180,-4,4,1.06,,,,,1,0,1,0,0,5,5,33,,,,,,,,,,,,,,,,,,,,,,,883.4511130000174,None,883.4511130000174,None,882.9507767000177,None,j,0.5273620999942068,883.4511130000174,None,,,,,,,m,001,2021_Jul_08_1338,toilet,2021.1.3,99.85162051868816,
0,180,4,-4,1.0,,,,,1,0,1,0,0,6,6,24,,,,,,,,,,,,,,,,,,,,,,,884.9920779000095,None,884.9920779000095,None,884.491827299993,None,j,0.7783321000169963,884.9920779000095,None,,,,,,,m,001,2021_Jul_08_1338,toilet,2021.1.3,99.85162051868816,
0,0,-4,4,0.97,,,,,1,0,1,0,0,7,7,2,,,,,,,,,,,,,,,,,,,,,,,886.7732798999932,None,886.7732798999932,None,886.2729379000084,None,f,0.7253137999796309,886.7732798999932,None,,,,,,,m,001,2021_Jul_08_1338,toilet,2021.1.3,99.85162051868816,
0,0,-4,4,0.85,,,,,1,0,1,0,0,8,8,0,,,,,,,,,,,,,,,,,,,,,,,888.5244690999971,None,888.5244690999971,None,888.0241273000138,None,f,0.5099715000251308,888.5244690999971,None,,,,,,,m,001,2021_Jul_08_1338,toilet,2021.1.3,99.85162051868816,
0,180,4,-4,0.85,,,,,1,0,1,0,0,9,9,21,,,,,,,,,,,,,,,,,,,,,,,890.0455025999981,None,890.0455025999981,None,889.545248200011,None,j,0.4929866000020411,890.0455025999981,None,,,,,,,m,001,2021_Jul_08_1338,toilet,2021.1.3,99.85162051868816,
0,0,4,-4,1.15,,,,,1,0,1,0,0,10,10,13,,,,,,,,,,,,,,,,,,,,,,,891.5565983999986,None,891.5565983999986,None,891.0562662000011,None,f,0.5177403999841772,891.5565983999986,None,,,,,,,m,001,2021_Jul_08_1338,toilet,2021.1.3,99.85162051868816,
180,180,4,-4,0.97,,,,,1,0,1,0,0,11,11,37,,,,,,,,,,,,,,,,,,,,,,,893.0775560000038,None,893.0775560000038,None,892.5772187999974,None,j,0.6287961000052746,893.0775560000038,None,,,,,,,m,001,2021_Jul_08_1338,toilet,2021.1.3,99.85162051868816,
0,0,4,-4,1.0,,,,,1,0,1,0,0,12,12,10,,,,,,,,,,,,,,,,,,,,,,,894.7086740999948,None,894.7086740999948,None,894.2083244000096,None,j,1.4618249000050128,894.7086740999948,None,,,,,,,m,001,2021_Jul_08_1338,toilet,2021.1.3,99.85162051868816,
180,0,4,-4,0.85,,,,,1,0,1,0,0,13,13,49,,,,,,,,,,,,,,,,,,,,,,,897.1803430000145,None,897.1803430000145,None,896.679999200016,None,j,0.5262834999884944,897.1803430000145,None,,,,,,,m,001,2021_Jul_08_1338,toilet,2021.1.3,99.85162051868816,
180,180,-4,4,0.94,,,,,1,0,1,0,0,14,14,29,,,,,,,,,,,,,,,,,,,,,,,898.721465700015,None,898.721465700015,None,898.221126199991,None,f,0.728950699995039,898.721465700015,None,,,,,,,m,001,2021_Jul_08_1338,toilet,2021.1.3,99.85162051868816,
180,0,-4,4,1.15,,,,,1,0,1,0,0,15,15,48,,,,,,,,,,,,,,,,,,,,,,,900.452612699999,None,900.452612699999,None,899.9522222999949,None,j,1.5738303999823984,900.452612699999,None,,,,,,,m,001,2021_Jul_08_1338,toilet,2021.1.3,99.85162051868816,
180,180,-4,4,0.85,,,,,1,0,1,0,0,16,16,28,,,,,,,,,,,,,,,,,,,,,,,903.034308000002,None,903.034308000002,None,902.5339749999985,None,f,0.5921374000026844,903.034308000002,None,,,,,,,m,001,2021_Jul_08_1338,toilet,2021.1.3,99.85162051868816,
0,180,4,-4,1.15,,,,,1,0,1,0,0,17,17,27,,,,,,,,,,,,,,,,,,,,,,,904.6353944000148,None,904.6353944000148,None,904.1350573000091,None,f,0.49508069999865256,904.6353944000148,None,,,,,,,m,001,2021_Jul_08_1338,toilet,2021.1.3,99.85162051868816,
180,0,-4,4,0.97,,,,,1,0,1,0,0,18,18,44,,,,,,,,,,,,,,,,,,,,,,,906.1464230999991,None,906.1464230999991,None,905.6461570000101,None,j,0.5520037000242155,906.1464230999991,None,,,,,,,m,001,2021_Jul_08_1338,toilet,2021.1.3,99.85162051868816,
180,0,-4,4,1.06,,,,,1,0,1,0,0,19,19,47,,,,,,,,,,,,,,,,,,,,,,,907.7074817999965,None,907.7074817999965,None,907.2071437000122,None,j,0.7508378999773413,907.7074817999965,None,,,,,,,m,001,2021_Jul_08_1338,toilet,2021.1.3,99.85162051868816,
180,180,4,-4,1.06,,,,,1,0,1,0,0,20,20,40,,,,,,,,,,,,,,,,,,,,,,,909.458669100015,None,909.458669100015,None,908.9583316000062,None,f,0.5197595999925397,909.458669100015,None,,,,,,,m,001,2021_Jul_08_1338,toilet,2021.1.3,99.85162051868816,
0,180,-4,4,0.85,,,,,1,0,1,0,0,21,21,14,,,,,,,,,,,,,,,,,,,,,,,910.9897108000005,None,910.9897108000005,None,910.4893666999997,None,f,0.47677670000121,910.9897108000005,None,,,,,,,m,001,2021_Jul_08_1338,toilet,2021.1.3,99.85162051868816,
0,0,-4,4,1.03,,,,,1,0,1,0,0,22,22,4,,,,,,,,,,,,,,,,,,,,,,,912.4807194000168,None,912.4807194000168,None,911.9804570999986,None,j,1.6576665999891702,912.4807194000168,None,,,,,,,m,001,2021_Jul_08_1338,toilet,2021.1.3,99.85162051868816,
0,180,-4,4,1.06,,,,,1,0,1,0,0,23,23,19,,,,,,,,,,,,,,,,,,,,,,,915.1425218000077,None,915.1425218000077,None,914.6421909999917,None,j,0.5797992000007071,915.1425218000077,None,,,,,,,m,001,2021_Jul_08_1338,toilet,2021.1.3,99.85162051868816,
0,0,4,-4,0.85,,,,,1,0,1,0,0,24,24,7,,,,,,,,,,,,,,,,,,,,,,,916.723603099992,None,916.723603099992,None,916.2232593999943,None,j,0.5826884999987669,916.723603099992,None,,,,,,,m,001,2021_Jul_08_1338,toilet,2021.1.3,99.85162051868816,
180,0,4,-4,1.03,,,,,1,0,1,0,0,25,25,53,,,,,,,,,,,,,,,,,,,,,,,918.3146751000022,None,918.3146751000022,None,917.8143447999901,None,f,0.55964550000499,918.3146751000022,None,,,,,,,m,001,2021_Jul_08_1338,toilet,2021.1.3,99.85162051868816,
180,0,4,-4,0.97,,,,,1,0,1,0,0,26,26,51,,,,,,,,,,,,,,,,,,,,,,,919.8757530000003,None,919.8757530000003,None,919.3754849999968,None,j,0.6467006999882869,919.8757530000003,None,,,,,,,m,001,2021_Jul_08_1338,toilet,2021.1.3,99.85162051868816,
180,180,4,-4,0.94,,,,,1,0,1,0,0,27,27,36,,,,,,,,,,,,,,,,,,,,,,,921.5368540000054,None,921.5368540000054,None,921.036520499998,None,j,0.6494657000002917,921.5368540000054,None,,,,,,,m,001,2021_Jul_08_1338,toilet,2021.1.3,99.85162051868816,
0,180,4,-4,1.06,,,,,1,0,1,0,0,28,28,26,,,,,,,,,,,,,,,,,,,,,,,923.1879826000077,None,923.1879826000077,None,922.6876406999945,None,f,0.5503474000142887,923.1879826000077,None,,,,,,,m,001,2021_Jul_08_1338,toilet,2021.1.3,99.85162051868816,
0,180,-4,4,0.97,,,,,1,0,1,0,0,29,29,16,,,,,,,,,,,,,,,,,,,,,,,924.7390337999968,None,924.7390337999968,None,924.2386952000088,None,f,0.5354772999999113,924.7390337999968,None,,,,,,,m,001,2021_Jul_08_1338,toilet,2021.1.3,99.85162051868816,
0,180,-4,4,1.03,,,,,1,0,1,0,0,30,30,18,,,,,,,,,,,,,,,,,,,,,,,926.290159199998,None,926.290159199998,None,925.7897796000179,None,j,0.5363665999902878,926.290159199998,None,,,,,,,m,001,2021_Jul_08_1338,toilet,2021.1.3,99.85162051868816,
180,0,4,-4,1.0,,,,,1,0,1,0,0,31,31,52,,,,,,,,,,,,,,,,,,,,,,,927.8411360000027,None,927.8411360000027,None,927.3408703000168,None,f,0.9533211000089068,927.8411360000027,None,,,,,,,m,001,2021_Jul_08_1338,toilet,2021.1.3,99.85162051868816,
180,0,4,-4,0.94,,,,,1,0,1,0,0,32,32,50,,,,,,,,,,,,,,,,,,,,,,,929.8024660999945,None,929.8024660999945,None,929.3021350000054,None,j,0.7999376999796368,929.8024660999945,None,,,,,,,m,001,2021_Jul_08_1338,toilet,2021.1.3,99.85162051868816,
0,0,4,-4,1.03,,,,,1,0,1,0,0,33,33,11,,,,,,,,,,,,,,,,,,,,,,,931.6036955000018,None,931.6036955000018,None,931.103348900011,None,j,0.8869109000079334,931.6036955000018,None,,,,,,,m,001,2021_Jul_08_1338,toilet,2021.1.3,99.85162051868816,
180,0,-4,4,0.94,,,,,1,0,1,0,0,34,34,43,,,,,,,,,,,,,,,,,,,,,,,933.5049792999926,None,933.5049792999926,None,933.004640500003,None,f,1.4814074999885634,933.5049792999926,None,,,,,,,m,001,2021_Jul_08_1338,toilet,2021.1.3,99.85162051868816,
0,0,4,-4,0.94,,,,,1,0,1,0,0,35,35,8,,,,,,,,,,,,,,,,,,,,,,,935.9966844000155,None,935.9966844000155,None,935.4964075000025,None,j,0.6218019000079948,935.9966844000155,None,,,,,,,m,001,2021_Jul_08_1338,toilet,2021.1.3,99.85162051868816,
0,0,4,-4,0.97,,,,,1,0,1,0,0,36,36,9,,,,,,,,,,,,,,,,,,,,,,,937.6277769000153,None,937.6277769000153,None,937.127439200005,None,j,0.6387234999856446,937.6277769000153,None,,,,,,,m,001,2021_Jul_08_1338,toilet,2021.1.3,99.85162051868816,
180,180,4,-4,1.03,,,,,1,0,1,0,0,37,37,39,,,,,,,,,,,,,,,,,,,,,,,939.2788968000095,None,939.2788968000095,None,938.7785574000154,None,f,0.5715767999936361,939.2788968000095,None,,,,,,,m,001,2021_Jul_08_1338,toilet,2021.1.3,99.85162051868816,
0,180,-4,4,0.94,,,,,1,0,1,0,0,38,38,15,,,,,,,,,,,,,,,,,,,,,,,940.8599728000117,None,940.8599728000117,None,940.3596284000087,None,f,0.9264187999942806,940.8599728000117,None,,,,,,,m,001,2021_Jul_08_1338,toilet,2021.1.3,99.85162051868816,
180,180,4,-4,0.85,,,,,1,0,1,0,0,39,39,35,,,,,,,,,,,,,,,,,,,,,,,942.8012840000156,None,942.8012840000156,None,942.3010298000008,None,j,0.5691047000000253,942.8012840000156,None,,,,,,,m,001,2021_Jul_08_1338,toilet,2021.1.3,99.85162051868816,
0,0,-4,4,0.94,,,,,1,0,1,0,0,40,40,1,,,,,,,,,,,,,,,,,,,,,,,944.3823620000039,None,944.3823620000039,None,943.8820270000142,None,f,0.508002500020666,944.3823620000039,None,,,,,,,m,001,2021_Jul_08_1338,toilet,2021.1.3,99.85162051868816,
0,180,4,-4,0.97,,,,,1,0,1,0,0,41,41,23,,,,,,,,,,,,,,,,,,,,,,,945.8933861000114,None,945.8933861000114,None,945.3930430000182,None,j,0.8690214999951422,945.8933861000114,None,,,,,,,m,001,2021_Jul_08_1338,toilet,2021.1.3,99.85162051868816,
0,180,-4,4,1.15,,,,,1,0,1,0,0,42,42,20,,,,,,,,,,,,,,,,,,,,,,,947.774656900001,None,947.774656900001,None,947.2743226000166,None,j,0.5397650000231806,947.774656900001,None,,,,,,,m,001,2021_Jul_08_1338,toilet,2021.1.3,99.85162051868816,
180,180,-4,4,1.0,,,,,1,0,1,0,0,43,43,31,,,,,,,,,,,,,,,,,,,,,,,949.3257991000137,None,949.3257991000137,None,948.825373300002,None,f,1.0527136000164319,949.3257991000137,None,,,,,,,m,001,2021_Jul_08_1338,toilet,2021.1.3,99.85162051868816,
180,180,-4,4,1.15,,,,,1,0,1,0,0,44,44,34,,,,,,,,,,,,,,,,,,,,,,,951.3971172000165,None,951.3971172000165,None,950.8967814999924,None,j,0.5172157000051811,951.3971172000165,None,,,,,,,m,001,2021_Jul_08_1338,toilet,2021.1.3,99.85162051868816,
180,0,4,-4,1.15,,,,,1,0,1,0,0,45,45,55,,,,,,,,,,,,,,,,,,,,,,,952.9181528000045,None,952.9181528000045,None,952.41780689999,None,f,0.5643947000207845,952.9181528000045,None,,,,,,,m,001,2021_Jul_08_1338,toilet,2021.1.3,99.85162051868816,
0,180,4,-4,1.03,,,,,1,0,1,0,0,46,46,25,,,,,,,,,,,,,,,,,,,,,,,954.4992195999948,None,954.4992195999948,None,953.9988954,None,f,1.3190833999833558,954.4992195999948,None,,,,,,,m,001,2021_Jul_08_1338,toilet,2021.1.3,99.85162051868816,
180,0,-4,4,0.85,,,,,1,0,1,0,0,47,47,42,,,,,,,,,,,,,,,,,,,,,,,956.820875800011,None,956.820875800011,None,956.3204558000143,None,f,0.8216375000192784,956.820875800011,None,,,,,,,m,001,2021_Jul_08_1338,toilet,2021.1.3,99.85162051868816,
0,0,4,-4,1.06,,,,,1,0,1,0,0,48,48,12,,,,,,,,,,,,,,,,,,,,,,,958.6520391000086,None,958.6520391000086,None,958.1517110000132,None,f,0.6382762000139337,958.6520391000086,None,,,,,,,m,001,2021_Jul_08_1338,toilet,2021.1.3,99.85162051868816,
180,0,-4,4,1.0,,,,,1,0,1,0,0,49,49,45,,,,,,,,,,,,,,,,,,,,,,,960.293150500016,None,960.293150500016,None,959.7928099000128,None,j,1.7492739000008442,960.293150500016,None,,,,,,,m,001,2021_Jul_08_1338,toilet,2021.1.3,99.85162051868816,
0,0,-4,4,1.15,,,,,1,0,1,0,0,50,50,6,,,,,,,,,,,,,,,,,,,,,,,963.0550320000038,None,963.0550320000038,None,962.5546859000169,None,j,0.5872651000099722,963.0550320000038,None,,,,,,,m,001,2021_Jul_08_1338,toilet,2021.1.3,99.85162051868816,
180,180,4,-4,1.0,,,,,1,0,1,0,0,51,51,38,,,,,,,,,,,,,,,,,,,,,,,964.6461389000178,None,964.6461389000178,None,964.1458567999944,None,f,0.5802948999917135,964.6461389000178,None,,,,,,,m,001,2021_Jul_08_1338,toilet,2021.1.3,99.85162051868816,
180,0,4,-4,1.06,,,,,1,0,1,0,0,52,52,54,,,,,,,,,,,,,,,,,,,,,,,966.237183499994,None,966.237183499994,None,965.7368489000073,None,f,0.9732288999948651,966.237183499994,None,,,,,,,m,001,2021_Jul_08_1338,toilet,2021.1.3,99.85162051868816,
180,180,-4,4,0.97,,,,,1,0,1,0,0,53,53,30,,,,,,,,,,,,,,,,,,,,,,,968.2185278999968,None,968.2185278999968,None,967.7181927000056,None,f,1.0398570999968797,968.2185278999968,None,,,,,,,m,001,2021_Jul_08_1338,toilet,2021.1.3,99.85162051868816,
180,0,-4,4,1.03,,,,,1,0,1,0,0,54,54,46,,,,,,,,,,,,,,,,,,,,,,,970.2699225000106,None,970.2699225000106,None,969.769576199993,None,j,0.5405221999972127,970.2699225000106,None,,,,,,,m,001,2021_Jul_08_1338,toilet,2021.1.3,99.85162051868816,
180,180,4,-4,1.15,,,,,1,0,1,0,0,55,55,41,,,,,,,,,,,,,,,,,,,,,,,971.8209697999991,None,971.8209697999991,None,971.3206828999973,None,f,0.41342420000000857,971.8209697999991,None,,,,,,,m,001,2021_Jul_08_1338,toilet,2021.1.3,99.85162051868816,
0,180,-4,4,0.94,,,,,1,0,1,0,1,0,56,15,,,,,,,,,,,,,,,,,,,,,,,973.2519407999935,None,973.2519407999935,None,972.7516141000087,None,f,0.8544815999921411,973.2519407999935,None,,,,,,,m,001,2021_Jul_08_1338,toilet,2021.1.3,99.85162051868816,
0,180,4,-4,0.97,,,,,1,0,1,0,1,1,57,23,,,,,,,,,,,,,,,,,,,,,,,975.1132030000153,None,975.1132030000153,None,974.6128645999997,None,j,0.5931511000089813,975.1132030000153,None,,,,,,,m,001,2021_Jul_08_1338,toilet,2021.1.3,99.85162051868816,
0,0,4,-4,1.15,,,,,1,0,1,0,1,2,58,13,,,,,,,,,,,,,,,,,,,,,,,976.7142878000159,None,976.7142878000159,None,976.213951600017,None,f,0.5600298999925144,976.7142878000159,None,,,,,,,m,001,2021_Jul_08_1338,toilet,2021.1.3,99.85162051868816,
180,180,-4,4,1.15,,,,,1,0,1,0,1,3,59,34,,,,,,,,,,,,,,,,,,,,,,,978.2753836000047,None,978.2753836000047,None,977.7750099000114,None,j,0.48694760000216775,978.2753836000047,None,,,,,,,m,001,2021_Jul_08_1338,toilet,2021.1.3,99.85162051868816,
0,180,4,-4,0.94,,,,,1,0,1,0,1,4,60,22,,,,,,,,,,,,,,,,,,,,,,,979.7664389999991,None,979.7664389999991,None,979.2661039000086,None,f,0.45211789998575114,979.7664389999991,None,,,,,,,m,001,2021_Jul_08_1338,toilet,2021.1.3,99.85162051868816,
180,180,4,-4,0.94,,,,,1,0,1,0,1,5,61,36,,,,,,,,,,,,,,,,,,,,,,,981.2273529999948,None,981.2273529999948,None,980.7370186999906,None,j,0.3989778999821283,981.2273529999948,None,,,,,,,m,001,2021_Jul_08_1338,toilet,2021.1.3,99.85162051868816,
180,0,-4,4,0.97,,,,,1,0,1,0,1,6,62,44,,,,,,,,,,,,,,,,,,,,,,,982.628306700004,None,982.628306700004,None,982.1279646999901,None,f,0.3901443000067957,982.628306700004,None,,,,,,,m,001,2021_Jul_08_1338,toilet,2021.1.3,99.85162051868816,
180,180,4,-4,0.97,,,,,1,0,1,0,1,7,63,37,,,,,,,,,,,,,,,,,,,,,,,984.0292517000053,None,984.0292517000053,None,983.5289125000127,None,j,0.46112790002371185,984.0292517000053,None,,,,,,,m,001,2021_Jul_08_1338,toilet,2021.1.3,99.85162051868816,
0,180,4,-4,0.85,,,,,1,0,1,0,1,8,64,21,,,,,,,,,,,,,,,,,,,,,,,985.5002821999951,None,985.5002821999951,None,984.9999067000172,None,j,0.4461594999884255,985.5002821999951,None,,,,,,,m,001,2021_Jul_08_1338,toilet,2021.1.3,99.85162051868816,
0,0,-4,4,0.94,,,,,1,0,1,0,1,9,65,1,,,,,,,,,,,,,,,,,,,,,,,986.9612555000058,None,986.9612555000058,None,986.4609772000113,None,f,0.4252260999928694,986.9612555000058,None,,,,,,,m,001,2021_Jul_08_1338,toilet,2021.1.3,99.85162051868816,
0,0,4,-4,1.06,,,,,1,0,1,0,1,10,66,12,,,,,,,,,,,,,,,,,,,,,,,988.4022183000052,None,988.4022183000052,None,987.9018804999941,None,f,0.5201281000045128,988.4022183000052,None,,,,,,,m,001,2021_Jul_08_1338,toilet,2021.1.3,99.85162051868816,
180,0,4,-4,1.15,,,,,1,0,1,0,1,11,67,55,,,,,,,,,,,,,,,,,,,,,,,989.9232488000125,None,989.9232488000125,None,989.4229036000033,None,f,0.48704999999608845,989.9232488000125,None,,,,,,,m,001,2021_Jul_08_1338,toilet,2021.1.3,99.85162051868816,
0,180,-4,4,1.15,,,,,1,0,1,0,1,12,68,20,,,,,,,,,,,,,,,,,,,,,,,991.4142596000165,None,991.4142596000165,None,990.9139269000152,None,j,0.4680518000095617,991.4142596000165,None,,,,,,,m,001,2021_Jul_08_1338,toilet,2021.1.3,99.85162051868816,
0,180,4,-4,1.03,,,,,1,0,1,0,1,13,69,25,,,,,,,,,,,,,,,,,,,,,,,992.895337599999,None,992.895337599999,None,992.3949286999996,None,f,0.49103679999825545,992.895337599999,None,,,,,,,m,001,2021_Jul_08_1338,toilet,2021.1.3,99.85162051868816,
0,180,4,-4,1.15,,,,,1,0,1,0,1,14,70,27,,,,,,,,,,,,,,,,,,,,,,,994.3863695000182,None,994.3863695000182,None,993.8860211000137,None,f,0.43995020000147633,994.3863695000182,None,,,,,,,m,001,2021_Jul_08_1338,toilet,2021.1.3,99.85162051868816,
0,0,-4,4,1.06,,,,,1,0,1,0,1,15,71,5,,,,,,,,,,,,,,,,,,,,,,,995.8272503000044,None,995.8272503000044,None,995.3269464999903,None,j,0.48703970000497065,995.8272503000044,None,,,,,,,m,001,2021_Jul_08_1338,toilet,2021.1.3,99.85162051868816,
180,0,-4,4,0.85,,,,,1,0,1,0,1,16,72,42,,,,,,,,,,,,,,,,,,,,,,,997.3182671999966,None,997.3182671999966,None,996.8179604000179,None,f,0.4841213999898173,997.3182671999966,None,,,,,,,m,001,2021_Jul_08_1338,toilet,2021.1.3,99.85162051868816,
180,180,-4,4,0.97,,,,,1,0,1,0,1,17,73,30,,,,,,,,,,,,,,,,,,,,,,,998.8092760000145,None,998.8092760000145,None,998.308976100001,None,f,0.7531765000021551,998.8092760000145,None,,,,,,,m,001,2021_Jul_08_1338,toilet,2021.1.3,99.85162051868816,
180,0,4,-4,0.97,,,,,1,0,1,0,1,18,74,51,,,,,,,,,,,,,,,,,,,,,,,1000.5805676000018,None,1000.5805676000018,None,1000.0801401000062,None,j,0.4059745999984443,1000.5805676000018,None,,,,,,,m,001,2021_Jul_08_1338,toilet,2021.1.3,99.85162051868816,
0,180,4,-4,1.0,,,,,1,0,1,0,1,19,75,24,,,,,,,,,,,,,,,,,,,,,,,1002.0015180000046,None,1002.0015180000046,None,1001.5011847999995,None,j,1.6567522999830544,1002.0015180000046,None,,,,,,,m,001,2021_Jul_08_1338,toilet,2021.1.3,99.85162051868816,
180,0,-4,4,1.0,,,,,1,0,1,0,1,20,76,45,,,,,,,,,,,,,,,,,,,,,,,1004.6632446000003,None,1004.6632446000003,None,1004.1629096000106,None,j,0.8189971999963745,1004.6632446000003,None,,,,,,,m,001,2021_Jul_08_1338,toilet,2021.1.3,99.85162051868816,
0,0,-4,4,1.03,,,,,1,0,1,0,1,21,77,4,,,,,,,,,,,,,,,,,,,,,,,1006.4844863000035,None,1006.4844863000035,None,1005.9841438000149,None,f,0.45382059999974445,1006.4844863000035,None,,,,,,,m,001,2021_Jul_08_1338,toilet,2021.1.3,99.85162051868816,
180,0,4,-4,1.06,,,,,1,0,1,0,1,22,78,54,,,,,,,,,,,,,,,,,,,,,,,1007.9455516000162,None,1007.9455516000162,None,1007.4451468000188,None,f,0.6568063000158872,1007.9455516000162,None,,,,,,,m,001,2021_Jul_08_1338,toilet,2021.1.3,99.85162051868816,
0,0,-4,4,0.97,,,,,1,0,1,0,1,23,79,2,,,,,,,,,,,,,,,,,,,,,,,1009.6166935999936,None,1009.6166935999936,None,1009.1163459999952,None,j,1.6096003999991808,1009.6166935999936,None,,,,,,,m,001,2021_Jul_08_1338,toilet,2021.1.3,99.85162051868816,
0,0,-4,4,1.15,,,,,1,0,1,0,1,24,80,6,,,,,,,,,,,,,,,,,,,,,,,1012.2283822000027,None,1012.2283822000027,None,1011.7280382000026,None,j,0.6939095000270754,1012.2283822000027,None,,,,,,,m,001,2021_Jul_08_1338,toilet,2021.1.3,99.85162051868816,
180,0,4,-4,1.03,,,,,1,0,1,0,1,25,81,53,,,,,,,,,,,,,,,,,,,,,,,1013.9295389000035,None,1013.9295389000035,None,1013.4291945000004,None,f,0.7049150000093505,1013.9295389000035,None,,,,,,,m,001,2021_Jul_08_1338,toilet,2021.1.3,99.85162051868816,
180,0,4,-4,1.0,,,,,1,0,1,0,1,26,82,52,,,,,,,,,,,,,,,,,,,,,,,1015.6507861000136,None,1015.6507861000136,None,1015.1503987000033,None,f,1.0155451000027824,1015.6507861000136,None,,,,,,,m,001,2021_Jul_08_1338,toilet,2021.1.3,99.85162051868816,
0,180,-4,4,1.0,,,,,1,0,1,0,1,27,83,17,,,,,,,,,,,,,,,,,,,,,,,1017.6720694999967,None,1017.6720694999967,None,1017.1717327999941,None,f,2.2103911000012886,1017.6720694999967,None,,,,,,,m,001,2021_Jul_08_1338,toilet,2021.1.3,99.85162051868816,
0,0,4,-4,0.97,,,,,1,0,1,0,1,28,84,9,,,,,,,,,,,,,,,,,,,,,,,1020.8942554999958,None,1020.8942554999958,None,1020.3939228999952,None,j,0.6520166999835055,1020.8942554999958,None,,,,,,,m,001,2021_Jul_08_1338,toilet,2021.1.3,99.85162051868816,
180,0,-4,4,1.15,,,,,1,0,1,0,1,29,85,48,,,,,,,,,,,,,,,,,,,,,,,1022.5554542000173,None,1022.5554542000173,None,1022.0550430000003,None,j,0.5430402999918442,1022.5554542000173,None,,,,,,,m,001,2021_Jul_08_1338,toilet,2021.1.3,99.85162051868816,
180,0,-4,4,0.94,,,,,1,0,1,0,1,30,86,43,,,,,,,,,,,,,,,,,,,,,,,1024.116524400015,None,1024.116524400015,None,1023.61618740001,None,f,0.7738059000112116,1024.116524400015,None,,,,,,,m,001,2021_Jul_08_1338,toilet,2021.1.3,99.85162051868816,
180,0,-4,4,1.06,,,,,1,0,1,0,1,31,87,47,,,,,,,,,,,,,,,,,,,,,,,1025.8976487000182,None,1025.8976487000182,None,1025.3973086999904,None,j,0.8006519000045955,1025.8976487000182,None,,,,,,,m,001,2021_Jul_08_1338,toilet,2021.1.3,99.85162051868816,
180,180,4,-4,1.0,,,,,1,0,1,0,1,32,88,38,,,,,,,,,,,,,,,,,,,,,,,1027.698869600019,None,1027.698869600019,None,1027.1985308000003,None,f,3.063639800006058,1027.698869600019,None,,,,,,,m,001,2021_Jul_08_1338,toilet,2021.1.3,99.85162051868816,
180,180,4,-4,1.15,,,,,1,0,1,0,1,33,89,41,,,,,,,,,,,,,,,,,,,,,,,1031.771665200009,None,1031.771665200009,None,1031.2712961999932,None,f,0.7666343000018969,1031.771665200009,None,,,,,,,m,001,2021_Jul_08_1338,toilet,2021.1.3,99.85162051868816,
0,0,4,-4,0.85,,,,,1,0,1,0,1,34,90,7,,,,,,,,,,,,,,,,,,,,,,,1033.5428378999932,None,1033.5428378999932,None,1033.042549100006,None,j,0.5477763999952003,1033.5428378999932,None,,,,,,,m,001,2021_Jul_08_1338,toilet,2021.1.3,99.85162051868816,
0,0,4,-4,1.03,,,,,1,0,1,0,1,35,91,11,,,,,,,,,,,,,,,,,,,,,,,1035.1039234999917,None,1035.1039234999917,None,1034.6035642999923,None,f,4.8264539999945555,1035.1039234999917,None,,,,,,,m,001,2021_Jul_08_1338,toilet,2021.1.3,99.85162051868816,
0,180,-4,4,0.97,,,,,1,0,1,0,1,36,92,16,,,,,,,,,,,,,,,,,,,,,,,1040.9378501000174,None,1040.9378501000174,None,1040.4375105999934,None,f,2.8804200000013225,1040.9378501000174,None,,,,,,,m,001,2021_Jul_08_1338,toilet,2021.1.3,99.85162051868816,
180,180,4,-4,1.06,,,,,1,0,1,0,1,37,93,40,,,,,,,,,,,,,,,,,,,,,,,1044.820595600002,None,1044.820595600002,None,1044.320146700018,None,f,0.8216639999882318,1044.820595600002,None,,,,,,,m,001,2021_Jul_08_1338,toilet,2021.1.3,99.85162051868816,
0,0,4,-4,0.94,,,,,1,0,1,0,1,38,94,8,,,,,,,,,,,,,,,,,,,,,,,1046.6417533000058,None,1046.6417533000058,None,1046.1514581000083,None,j,7.384596399992006,1046.6417533000058,None,,,,,,,m,001,2021_Jul_08_1338,toilet,2021.1.3,99.85162051868816,
0,180,-4,4,0.85,,,,,1,0,1,0,1,39,95,14,,,,,,,,,,,,,,,,,,,,,,,1055.0274059000076,None,1055.0274059000076,None,1054.5270764000015,None,f,0.790874199999962,1055.0274059000076,None,,,,,,,m,001,2021_Jul_08_1338,toilet,2021.1.3,99.85162051868816,
180,180,4,-4,1.03,,,,,1,0,1,0,1,40,96,39,,,,,,,,,,,,,,,,,,,,,,,1056.8186232000007,None,1056.8186232000007,None,1056.3182861999958,None,f,1.3359324000193737,1056.8186232000007,None,,,,,,,m,001,2021_Jul_08_1338,toilet,2021.1.3,99.85162051868816,
0,0,-4,4,0.85,,,,,1,0,1,0,1,41,97,0,,,,,,,,,,,,,,,,,,,,,,,1059.1802320000133,None,1059.1802320000133,None,1058.6798835000081,None,f,1.0222037000057753,1059.1802320000133,None,,,,,,,m,001,2021_Jul_08_1338,toilet,2021.1.3,99.85162051868816,
180,180,-4,4,1.06,,,,,1,0,1,0,1,42,98,33,,,,,,,,,,,,,,,,,,,,,,,1061.2116182000027,None,1061.2116182000027,None,1060.7113533999946,None,j,0.6386457000044174,1061.2116182000027,None,,,,,,,m,001,2021_Jul_08_1338,toilet,2021.1.3,99.85162051868816,
0,180,-4,4,1.06,,,,,1,0,1,0,1,43,99,19,,,,,,,,,,,,,,,,,,,,,,,1062.852715200017,None,1062.852715200017,None,1062.3523780000105,None,f,5.301627200009534,1062.852715200017,None,,,,,,,m,001,2021_Jul_08_1338,toilet,2021.1.3,99.85162051868816,
180,180,-4,4,0.85,,,,,1,0,1,0,1,44,100,28,,,,,,,,,,,,,,,,,,,,,,,1069.1669993000105,None,1069.1669993000105,None,1068.666655900015,None,f,0.6992708000179846,1069.1669993000105,None,,,,,,,m,001,2021_Jul_08_1338,toilet,2021.1.3,99.85162051868816,
0,0,4,-4,1.0,,,,,1,0,1,0,1,45,101,10,,,,,,,,,,,,,,,,,,,,,,,1070.8681547000015,None,1070.8681547000015,None,1070.3678152000066,None,j,0.7422207000199705,1070.8681547000015,None,,,,,,,m,001,2021_Jul_08_1338,toilet,2021.1.3,99.85162051868816,
180,0,4,-4,0.94,,,,,1,0,1,0,1,46,102,50,,,,,,,,,,,,,,,,,,,,,,,1072.6293424000032,None,1072.6293424000032,None,1072.129001399997,None,j,0.5810475000180304,1072.6293424000032,None,,,,,,,m,001,2021_Jul_08_1338,toilet,2021.1.3,99.85162051868816,
180,180,-4,4,0.94,,,,,1,0,1,0,1,47,103,29,,,,,,,,,,,,,,,,,,,,,,,1074.2105026000063,None,1074.2105026000063,None,1073.7100800999906,None,f,0.5360107000160497,1074.2105026000063,None,,,,,,,m,001,2021_Jul_08_1338,toilet,2021.1.3,99.85162051868816,
180,180,-4,4,1.0,,,,,1,0,1,0,1,48,104,31,,,,,,,,,,,,,,,,,,,,,,,1075.7614648000163,None,1075.7614648000163,None,1075.2612296000007,None,f,1.2568116000038572,1075.7614648000163,None,,,,,,,m,001,2021_Jul_08_1338,toilet,2021.1.3,99.85162051868816,
180,0,4,-4,0.85,,,,,1,0,1,0,1,49,105,49,,,,,,,,,,,,,,,,,,,,,,,1078.022999400011,None,1078.022999400011,None,1077.522659500013,None,j,0.5474832000036258,1078.022999400011,None,,,,,,,m,001,2021_Jul_08_1338,toilet,2021.1.3,99.85162051868816,
0,0,-4,4,1.0,,,,,1,0,1,0,1,50,106,3,,,,,,,,,,,,,,,,,,,,,,,1079.5940759000077,None,1079.5940759000077,None,1079.0937306999986,None,j,0.9123669000109658,1079.5940759000077,None,,,,,,,m,001,2021_Jul_08_1338,toilet,2021.1.3,99.85162051868816,
0,180,4,-4,1.06,,,,,1,0,1,0,1,51,107,26,,,,,,,,,,,,,,,,,,,,,,,1081.5255109000136,None,1081.5255109000136,None,1081.0250396000047,None,f,0.6449847999901976,1081.5255109000136,None,,,,,,,m,001,2021_Jul_08_1338,toilet,2021.1.3,99.85162051868816,
180,180,4,-4,0.85,,,,,1,0,1,0,1,52,108,35,,,,,,,,,,,,,,,,,,,,,,,1083.1865450000041,None,1083.1865450000041,None,1082.686247900012,None,j,0.5357105000002775,1083.1865450000041,None,,,,,,,m,001,2021_Jul_08_1338,toilet,2021.1.3,99.85162051868816,
180,0,-4,4,1.03,,,,,1,0,1,0,1,53,109,46,,,,,,,,,,,,,,,,,,,,,,,1084.727563499997,None,1084.727563499997,None,1084.2272153999947,None,j,0.6747260999982245,1084.727563499997,None,,,,,,,m,001,2021_Jul_08_1338,toilet,2021.1.3,99.85162051868816,
180,180,-4,4,1.03,,,,,1,0,1,0,1,54,110,32,,,,,,,,,,,,,,,,,,,,,,,1086.4086965000024,None,1086.4086965000024,None,1085.9083537000115,None,f,1.217893000022741,1086.4086965000024,None,,,,,,,m,001,2021_Jul_08_1338,toilet,2021.1.3,99.85162051868816,
0,180,-4,4,1.03,,,,,1,0,1,0,1,55,111,18,,,,,,,,,,,,,,,,,,,,,,,1088.6402104000153,None,1088.6402104000153,None,1088.139869000006,None,j,0.7301299000100698,1088.6402104000153,None,,,,,,,m,001,2021_Jul_08_1338,toilet,2021.1.3,99.85162051868816,
,,,,,,,,,1,0,1,0,,,,,,,,,,,,,,,,,,,,,,,,,,,,,,,,,,,,,1089.3907530000142,None,space,1.4194881999865174,1089.3907530000142,None,m,001,2021_Jul_08_1338,toilet,2021.1.3,99.85162051868816,
0,180,-4,4,1.06,,,,,2,0,2,0,0,0,0,19,,,,,,,,,,,,,,,,,1090.8317457000085,None,space,1.3705146000138484,1090.8317457000085,None,1093.2133142999955,None,1093.2133142999955,None,1092.7129714000039,None,f,1.1012152999755926,1093.2133142999955,None,,,,,,,m,001,2021_Jul_08_1338,toilet,2021.1.3,99.85162051868816,
180,0,4,-4,1.0,,,,,2,0,2,0,0,1,1,52,,,,,,,,,,,,,,,,,,,,,,,1095.324740400014,None,1095.324740400014,None,1094.8244046000182,None,f,1.3096051999891642,1095.324740400014,None,,,,,,,m,001,2021_Jul_08_1338,toilet,2021.1.3,99.85162051868816,
0,0,-4,4,0.85,,,,,2,0,2,0,0,2,2,0,,,,,,,,,,,,,,,,,,,,,,,1097.6463935000065,None,1097.6463935000065,None,1097.1460160000133,None,f,0.6519428000028711,1097.6463935000065,None,,,,,,,m,001,2021_Jul_08_1338,toilet,2021.1.3,99.85162051868816,
180,0,4,-4,1.03,,,,,2,0,2,0,0,3,3,53,,,,,,,,,,,,,,,,,,,,,,,1099.2974366999988,None,1099.2974366999988,None,1098.7970974000054,None,f,0.7448791999777313,1099.2974366999988,None,,,,,,,m,001,2021_Jul_08_1338,toilet,2021.1.3,99.85162051868816,
180,180,4,-4,0.97,,,,,2,0,2,0,0,4,4,37,,,,,,,,,,,,,,,,,,,,,,,1101.0586044999945,None,1101.0586044999945,None,1100.5582985999936,None,j,0.5837943999795243,1101.0586044999945,None,,,,,,,m,001,2021_Jul_08_1338,toilet,2021.1.3,99.85162051868816,
180,0,-4,4,0.85,,,,,2,0,2,0,0,5,5,42,,,,,,,,,,,,,,,,,,,,,,,1102.6597183000122,None,1102.6597183000122,None,1102.1593758999952,None,f,0.5827182999928482,1102.6597183000122,None,,,,,,,m,001,2021_Jul_08_1338,toilet,2021.1.3,99.85162051868816,
0,0,4,-4,0.94,,,,,2,0,2,0,0,6,6,8,,,,,,,,,,,,,,,,,,,,,,,1104.260899100016,None,1104.260899100016,None,1103.7605406999937,None,j,0.5814880999969319,1104.260899100016,None,,,,,,,m,001,2021_Jul_08_1338,toilet,2021.1.3,99.85162051868816,
180,180,-4,4,0.85,,,,,2,0,2,0,0,7,7,28,,,,,,,,,,,,,,,,,,,,,,,1105.8518807000073,None,1105.8518807000073,None,1105.3516253000125,None,f,0.6063633000012487,1105.8518807000073,None,,,,,,,m,001,2021_Jul_08_1338,toilet,2021.1.3,99.85162051868816,
0,180,-4,4,1.15,,,,,2,0,2,0,0,8,8,20,,,,,,,,,,,,,,,,,,,,,,,1107.4629729000153,None,1107.4629729000153,None,1106.9626328000159,None,j,0.48330359999090433,1107.4629729000153,None,,,,,,,m,001,2021_Jul_08_1338,toilet,2021.1.3,99.85162051868816,
180,180,-4,4,1.0,,,,,2,0,2,0,0,9,9,31,,,,,,,,,,,,,,,,,,,,,,,1108.9539861000085,None,1108.9539861000085,None,1108.4536468000151,None,f,0.5923619999957737,1108.9539861000085,None,,,,,,,m,001,2021_Jul_08_1338,toilet,2021.1.3,99.85162051868816,
180,0,-4,4,1.15,,,,,2,0,2,0,0,10,10,48,,,,,,,,,,,,,,,,,,,,,,,1110.5550681000168,None,1110.5550681000168,None,1110.0547299000027,None,j,0.46335249999538064,1110.5550681000168,None,,,,,,,m,001,2021_Jul_08_1338,toilet,2021.1.3,99.85162051868816,
0,180,4,-4,0.85,,,,,2,0,2,0,0,11,11,21,,,,,,,,,,,,,,,,,,,,,,,1112.0460917000019,None,1112.0460917000019,None,1111.5458197999978,None,j,0.6203269000106957,1112.0460917000019,None,,,,,,,m,001,2021_Jul_08_1338,toilet,2021.1.3,99.85162051868816,
180,180,4,-4,0.94,,,,,2,0,2,0,0,12,12,36,,,,,,,,,,,,,,,,,,,,,,,1113.6771985999949,None,1113.6771985999949,None,1113.1768530000118,None,j,0.7170462999783922,1113.6771985999949,None,,,,,,,m,001,2021_Jul_08_1338,toilet,2021.1.3,99.85162051868816,
180,180,4,-4,1.0,,,,,2,0,2,0,0,13,13,38,,,,,,,,,,,,,,,,,,,,,,,1115.398362100008,None,1115.398362100008,None,1114.8980194000178,None,f,0.8199590000149328,1115.398362100008,None,,,,,,,m,001,2021_Jul_08_1338,toilet,2021.1.3,99.85162051868816,
0,0,-4,4,0.97,,,,,2,0,2,0,0,14,14,2,,,,,,,,,,,,,,,,,,,,,,,1117.2296002999938,None,1117.2296002999938,None,1116.7292597999913,None,f,1.0368351999786682,1117.2296002999938,None,,,,,,,m,001,2021_Jul_08_1338,toilet,2021.1.3,99.85162051868816,
180,180,4,-4,1.06,,,,,2,0,2,0,0,15,15,40,,,,,,,,,,,,,,,,,,,,,,,1119.2810680000111,None,1119.2810680000111,None,1118.780650700006,None,f,0.6972258000168949,1119.2810680000111,None,,,,,,,m,001,2021_Jul_08_1338,toilet,2021.1.3,99.85162051868816,
180,0,4,-4,1.15,,,,,2,0,2,0,0,16,16,55,,,,,,,,,,,,,,,,,,,,,,,1120.9921520999924,None,1120.9921520999924,None,1120.4918118999922,None,f,0.7941896999836899,1120.9921520999924,None,,,,,,,m,001,2021_Jul_08_1338,toilet,2021.1.3,99.85162051868816,
0,180,-4,4,1.0,,,,,2,0,2,0,0,17,17,17,,,,,,,,,,,,,,,,,,,,,,,1122.7933724000177,None,1122.7933724000177,None,1122.293032000016,None,f,1.0089458999864291,1122.7933724000177,None,,,,,,,m,001,2021_Jul_08_1338,toilet,2021.1.3,99.85162051868816,
180,180,-4,4,1.15,,,,,2,0,2,0,0,18,18,34,,,,,,,,,,,,,,,,,,,,,,,1124.8047407999984,None,1124.8047407999984,None,1124.304397400003,None,j,0.5816009999834932,1124.8047407999984,None,,,,,,,m,001,2021_Jul_08_1338,toilet,2021.1.3,99.85162051868816,
180,180,4,-4,1.15,,,,,2,0,2,0,0,19,19,41,,,,,,,,,,,,,,,,,,,,,,,1126.3958206000098,None,1126.3958206000098,None,1125.8955671000003,None,f,0.6226662999833934,1126.3958206000098,None,,,,,,,m,001,2021_Jul_08_1338,toilet,2021.1.3,99.85162051868816,
0,0,-4,4,1.0,,,,,2,0,2,0,0,20,20,3,,,,,,,,,,,,,,,,,,,,,,,1128.036933700001,None,1128.036933700001,None,1127.5365891999973,None,j,0.9813086000212934,1128.036933700001,None,,,,,,,m,001,2021_Jul_08_1338,toilet,2021.1.3,99.85162051868816,
0,180,4,-4,1.0,,,,,2,0,2,0,0,21,21,24,,,,,,,,,,,,,,,,,,,,,,,1130.018273900001,None,1130.018273900001,None,1129.5179342000047,None,f,1.8320585000037681,1130.018273900001,None,,,,,,,m,001,2021_Jul_08_1338,toilet,2021.1.3,99.85162051868816,
180,180,4,-4,1.03,,,,,2,0,2,0,0,22,22,39,,,,,,,,,,,,,,,,,,,,,,,1132.8601974000048,None,1132.8601974000048,None,1132.3599492000067,None,f,0.7181185999943409,1132.8601974000048,None,,,,,,,m,001,2021_Jul_08_1338,toilet,2021.1.3,99.85162051868816,
180,180,-4,4,0.97,,,,,2,0,2,0,0,23,23,30,,,,,,,,,,,,,,,,,,,,,,,1134.591404100007,None,1134.591404100007,None,1134.091118500015,None,f,1.0829421999806073,1134.591404100007,None,,,,,,,m,001,2021_Jul_08_1338,toilet,2021.1.3,99.85162051868816,
180,0,-4,4,1.06,,,,,2,0,2,0,0,24,24,47,,,,,,,,,,,,,,,,,,,,,,,1136.6827876000025,None,1136.6827876000025,None,1136.1824563000118,None,j,1.0556022000091616,1136.6827876000025,None,,,,,,,m,001,2021_Jul_08_1338,toilet,2021.1.3,99.85162051868816,
0,0,4,-4,0.85,,,,,2,0,2,0,0,25,25,7,,,,,,,,,,,,,,,,,,,,,,,1138.7642537000065,None,1138.7642537000065,None,1138.2638694999914,None,j,0.5580750000081025,1138.7642537000065,None,,,,,,,m,001,2021_Jul_08_1338,toilet,2021.1.3,99.85162051868816,
0,0,-4,4,1.06,,,,,2,0,2,0,0,26,26,5,,,,,,,,,,,,,,,,,,,,,,,1140.3352666000137,None,1140.3352666000137,None,1139.8350076999923,None,j,0.6669818999944255,1140.3352666000137,None,,,,,,,m,001,2021_Jul_08_1338,toilet,2021.1.3,99.85162051868816,
0,0,4,-4,0.97,,,,,2,0,2,0,0,27,27,9,,,,,,,,,,,,,,,,,,,,,,,1142.0064802000124,None,1142.0064802000124,None,1141.5061620000051,None,j,0.8837932999886107,1142.0064802000124,None,,,,,,,m,001,2021_Jul_08_1338,toilet,2021.1.3,99.85162051868816,
0,0,4,-4,1.06,,,,,2,0,2,0,0,28,28,12,,,,,,,,,,,,,,,,,,,,,,,1143.8976892000064,None,1143.8976892000064,None,1143.3973455000087,None,f,0.608543100010138,1143.8976892000064,None,,,,,,,m,001,2021_Jul_08_1338,toilet,2021.1.3,99.85162051868816,
180,180,-4,4,1.03,,,,,2,0,2,0,0,29,29,32,,,,,,,,,,,,,,,,,,,,,,,1145.5087788999954,None,1145.5087788999954,None,1145.0084380999906,None,f,4.757542899984401,1145.5087788999954,None,,,,,,,m,001,2021_Jul_08_1338,toilet,2021.1.3,99.85162051868816,
180,0,-4,4,1.03,,,,,2,0,2,0,0,30,30,46,,,,,,,,,,,,,,,,,,,,,,,1151.2726868000173,None,1151.2726868000173,None,1150.772378099995,None,j,0.8178706000035163,1151.2726868000173,None,,,,,,,m,001,2021_Jul_08_1338,toilet,2021.1.3,99.85162051868816,
0,180,4,-4,1.03,,,,,2,0,2,0,0,31,31,25,,,,,,,,,,,,,,,,,,,,,,,1153.1039321999997,None,1153.1039321999997,None,1152.6035887000035,None,j,0.7944518000003882,1153.1039321999997,None,,,,,,,m,001,2021_Jul_08_1338,toilet,2021.1.3,99.85162051868816,
0,0,-4,4,0.94,,,,,2,0,2,0,0,32,32,1,,,,,,,,,,,,,,,,,,,,,,,1154.9251677000138,None,1154.9251677000138,None,1154.4248248999938,None,f,1.0850552000047173,1154.9251677000138,None,,,,,,,m,001,2021_Jul_08_1338,toilet,2021.1.3,99.85162051868816,
0,180,4,-4,1.15,,,,,2,0,2,0,0,33,33,27,,,,,,,,,,,,,,,,,,,,,,,1157.0166608,None,1157.0166608,None,1156.5163249000034,None,f,0.7055890999909025,1157.0166608,None,,,,,,,m,001,2021_Jul_08_1338,toilet,2021.1.3,99.85162051868816,
180,0,4,-4,0.97,,,,,2,0,2,0,0,34,34,51,,,,,,,,,,,,,,,,,,,,,,,1158.7277430999966,None,1158.7277430999966,None,1158.2274058999901,None,f,0.8664852999791037,1158.7277430999966,None,,,,,,,m,001,2021_Jul_08_1338,toilet,2021.1.3,99.85162051868816,
180,180,-4,4,0.94,,,,,2,0,2,0,0,35,35,29,,,,,,,,,,,,,,,,,,,,,,,1160.5990186000126,None,1160.5990186000126,None,1160.098674000008,None,f,0.48340830000233836,1160.5990186000126,None,,,,,,,m,001,2021_Jul_08_1338,toilet,2021.1.3,99.85162051868816,
0,180,-4,4,0.85,,,,,2,0,2,0,0,36,36,14,,,,,,,,,,,,,,,,,,,,,,,1162.1000320000167,None,1162.1000320000167,None,1161.5996897000005,None,f,0.582518599985633,1162.1000320000167,None,,,,,,,m,001,2021_Jul_08_1338,toilet,2021.1.3,99.85162051868816,
180,0,-4,4,0.94,,,,,2,0,2,0,0,37,37,43,,,,,,,,,,,,,,,,,,,,,,,1163.7011912000016,None,1163.7011912000016,None,1163.2007808999915,None,j,1.12513949998538,1163.7011912000016,None,,,,,,,m,001,2021_Jul_08_1338,toilet,2021.1.3,99.85162051868816,
0,0,4,-4,1.03,,,,,2,0,2,0,0,38,38,11,,,,,,,,,,,,,,,,,,,,,,,1165.8325647000165,None,1165.8325647000165,None,1165.33224779999,None,f,0.9618173000053503,1165.8325647000165,None,,,,,,,m,001,2021_Jul_08_1338,toilet,2021.1.3,99.85162051868816,
0,180,4,-4,0.97,,,,,2,0,2,0,0,39,39,23,,,,,,,,,,,,,,,,,,,,,,,1167.803932800016,None,1167.803932800016,None,1167.3035664999916,None,j,0.46251280000433326,1167.803932800016,None,,,,,,,m,001,2021_Jul_08_1338,toilet,2021.1.3,99.85162051868816,
0,180,-4,4,0.97,,,,,2,0,2,0,0,40,40,16,,,,,,,,,,,,,,,,,,,,,,,1169.2949379000056,None,1169.2949379000056,None,1168.7945743000018,None,f,0.5713992000091821,1169.2949379000056,None,,,,,,,m,001,2021_Jul_08_1338,toilet,2021.1.3,99.85162051868816,
180,0,-4,4,1.0,,,,,2,0,2,0,0,41,41,45,,,,,,,,,,,,,,,,,,,,,,,1170.876056100009,None,1170.876056100009,None,1170.375726600003,None,j,0.7662490000075195,1170.876056100009,None,,,,,,,m,001,2021_Jul_08_1338,toilet,2021.1.3,99.85162051868816,
180,0,4,-4,0.85,,,,,2,0,2,0,0,42,42,49,,,,,,,,,,,,,,,,,,,,,,,1172.6571907000034,None,1172.6571907000034,None,1172.1568521000154,None,j,0.6809774000139441,1172.6571907000034,None,,,,,,,m,001,2021_Jul_08_1338,toilet,2021.1.3,99.85162051868816,
180,180,4,-4,0.85,,,,,2,0,2,0,0,43,43,35,,,,,,,,,,,,,,,,,,,,,,,1174.3383308000048,None,1174.3383308000048,None,1173.8379929999937,None,j,0.5680272000026889,1174.3383308000048,None,,,,,,,m,001,2021_Jul_08_1338,toilet,2021.1.3,99.85162051868816,
0,0,4,-4,1.15,,,,,2,0,2,0,0,44,44,13,,,,,,,,,,,,,,,,,,,,,,,1175.9194015999965,None,1175.9194015999965,None,1175.419063600013,None,f,0.42681900001480244,1175.9194015999965,None,,,,,,,m,001,2021_Jul_08_1338,toilet,2021.1.3,99.85162051868816,
0,180,4,-4,1.06,,,,,2,0,2,0,0,45,45,26,,,,,,,,,,,,,,,,,,,,,,,1177.3504560000147,None,1177.3504560000147,None,1176.850041800004,None,j,1.2038943000079598,1177.3504560000147,None,,,,,,,m,001,2021_Jul_08_1338,toilet,2021.1.3,99.85162051868816,
0,0,-4,4,1.03,,,,,2,0,2,0,0,46,46,4,,,,,,,,,,,,,,,,,,,,,,,1179.571881700016,None,1179.571881700016,None,1179.0715757000144,None,j,0.6145194999990053,1179.571881700016,None,,,,,,,m,001,2021_Jul_08_1338,toilet,2021.1.3,99.85162051868816,
180,180,-4,4,1.06,,,,,2,0,2,0,0,47,47,33,,,,,,,,,,,,,,,,,,,,,,,1181.192976899998,None,1181.192976899998,None,1180.6926426000136,None,j,0.46552800000063144,1181.192976899998,None,,,,,,,m,001,2021_Jul_08_1338,toilet,2021.1.3,99.85162051868816,
180,0,-4,4,0.97,,,,,2,0,2,0,0,48,48,44,,,,,,,,,,,,,,,,,,,,,,,1182.673981800006,None,1182.673981800006,None,1182.173644399998,None,j,0.8083430000115186,1182.673981800006,None,,,,,,,m,001,2021_Jul_08_1338,toilet,2021.1.3,99.85162051868816,
0,0,4,-4,1.0,,,,,2,0,2,0,0,49,49,10,,,,,,,,,,,,,,,,,,,,,,,1184.4952127000142,None,1184.4952127000142,None,1183.9949166000006,None,j,0.49111199998878874,1184.4952127000142,None,,,,,,,m,001,2021_Jul_08_1338,toilet,2021.1.3,99.85162051868816,
0,180,-4,4,0.94,,,,,2,0,2,0,0,50,50,15,,,,,,,,,,,,,,,,,,,,,,,1185.9963312000036,None,1185.9963312000036,None,1185.4958937999909,None,f,0.6218679000157863,1185.9963312000036,None,,,,,,,m,001,2021_Jul_08_1338,toilet,2021.1.3,99.85162051868816,
180,0,4,-4,1.06,,,,,2,0,2,0,0,51,51,54,,,,,,,,,,,,,,,,,,,,,,,1187.6273508000013,None,1187.6273508000013,None,1187.1270052000182,None,f,0.5268557000090368,1187.6273508000013,None,,,,,,,m,001,2021_Jul_08_1338,toilet,2021.1.3,99.85162051868816,
0,0,-4,4,1.15,,,,,2,0,2,0,0,52,52,6,,,,,,,,,,,,,,,,,,,,,,,1189.1583905000007,None,1189.1583905000007,None,1188.6580489999906,None,j,0.41989260000991635,1189.1583905000007,None,,,,,,,m,001,2021_Jul_08_1338,toilet,2021.1.3,99.85162051868816,
180,0,4,-4,0.94,,,,,2,0,2,0,0,53,53,50,,,,,,,,,,,,,,,,,,,,,,,1190.5893543999991,None,1190.5893543999991,None,1190.0890425000107,None,j,1.6288694999821018,1190.5893543999991,None,,,,,,,m,001,2021_Jul_08_1338,toilet,2021.1.3,99.85162051868816,
0,180,-4,4,1.03,,,,,2,0,2,0,0,54,54,18,,,,,,,,,,,,,,,,,,,,,,,1193.2212304999994,None,1193.2212304999994,None,1192.720889499993,None,j,1.4930784000025596,1193.2212304999994,None,,,,,,,m,001,2021_Jul_08_1338,toilet,2021.1.3,99.85162051868816,
0,180,4,-4,0.94,,,,,2,0,2,0,0,55,55,22,,,,,,,,,,,,,,,,,,,,,,,1195.7228378000145,None,1195.7228378000145,None,1195.2224966000067,None,j,0.5114783000026364,1195.7228378000145,None,,,,,,,m,001,2021_Jul_08_1338,toilet,2021.1.3,99.85162051868816,
180,0,-4,4,0.97,,,,,2,0,2,0,1,0,56,44,,,,,,,,,,,,,,,,,,,,,,,1197.2438650999975,None,1197.2438650999975,None,1196.7435288999986,None,f,0.5104253999888897,1197.2438650999975,None,,,,,,,m,001,2021_Jul_08_1338,toilet,2021.1.3,99.85162051868816,
0,180,-4,4,1.15,,,,,2,0,2,0,1,1,57,20,,,,,,,,,,,,,,,,,,,,,,,1198.7649354000168,None,1198.7649354000168,None,1198.2645585999999,None,j,0.5255231999908574,1198.7649354000168,None,,,,,,,m,001,2021_Jul_08_1338,toilet,2021.1.3,99.85162051868816,
180,180,-4,4,0.94,,,,,2,0,2,0,1,2,58,29,,,,,,,,,,,,,,,,,,,,,,,1200.305943799991,None,1200.305943799991,None,1199.805685600004,None,f,0.5044478999916464,1200.305943799991,None,,,,,,,m,001,2021_Jul_08_1338,toilet,2021.1.3,99.85162051868816,
0,180,-4,4,0.94,,,,,2,0,2,0,1,3,59,15,,,,,,,,,,,,,,,,,,,,,,,1201.826975200005,None,1201.826975200005,None,1201.3266729000024,None,f,0.631334900012007,1201.826975200005,None,,,,,,,m,001,2021_Jul_08_1338,toilet,2021.1.3,99.85162051868816,
0,0,-4,4,1.15,,,,,2,0,2,0,1,4,60,6,,,,,,,,,,,,,,,,,,,,,,,1203.4580802000128,None,1203.4580802000128,None,1202.9577466000046,None,j,0.5842509999929462,1203.4580802000128,None,,,,,,,m,001,2021_Jul_08_1338,toilet,2021.1.3,99.85162051868816,
0,0,-4,4,0.97,,,,,2,0,2,0,1,5,61,2,,,,,,,,,,,,,,,,,,,,,,,1205.0491600999958,None,1205.0491600999958,None,1204.5488300000143,None,f,0.5290561000001617,1205.0491600999958,None,,,,,,,m,001,2021_Jul_08_1338,toilet,2021.1.3,99.85162051868816,
0,180,-4,4,0.85,,,,,2,0,2,0,1,6,62,14,,,,,,,,,,,,,,,,,,,,,,,1206.5902823999932,None,1206.5902823999932,None,1206.089863000001,None,f,0.47589909998350777,1206.5902823999932,None,,,,,,,m,001,2021_Jul_08_1338,toilet,2021.1.3,99.85162051868816,
0,180,4,-4,1.03,,,,,2,0,2,0,1,7,63,25,,,,,,,,,,,,,,,,,,,,,,,1208.0712880000065,None,1208.0712880000065,None,1207.5709059000073,None,j,0.6109738000086509,1208.0712880000065,None,,,,,,,m,001,2021_Jul_08_1338,toilet,2021.1.3,99.85162051868816,
180,0,4,-4,1.06,,,,,2,0,2,0,1,8,64,54,,,,,,,,,,,,,,,,,,,,,,,1209.682276800013,None,1209.682276800013,None,1209.1919696000114,None,f,0.5520290000131354,1209.682276800013,None,,,,,,,m,001,2021_Jul_08_1338,toilet,2021.1.3,99.85162051868816,
0,0,4,-4,1.03,,,,,2,0,2,0,1,9,65,11,,,,,,,,,,,,,,,,,,,,,,,1211.2433652000036,None,1211.2433652000036,None,1210.7430228000158,None,f,1.0868311999947764,1211.2433652000036,None,,,,,,,m,001,2021_Jul_08_1338,toilet,2021.1.3,99.85162051868816,
180,0,4,-4,0.85,,,,,2,0,2,0,1,10,66,49,,,,,,,,,,,,,,,,,,,,,,,1213.3347855000175,None,1213.3347855000175,None,1212.8344393000007,None,j,0.5635881999915,1213.3347855000175,None,,,,,,,m,001,2021_Jul_08_1338,toilet,2021.1.3,99.85162051868816,
180,0,-4,4,1.06,,,,,2,0,2,0,1,11,67,47,,,,,,,,,,,,,,,,,,,,,,,1214.9158963999944,None,1214.9158963999944,None,1214.4155141999945,None,j,0.5823169999930542,1214.9158963999944,None,,,,,,,m,001,2021_Jul_08_1338,toilet,2021.1.3,99.85162051868816,
180,0,4,-4,1.0,,,,,2,0,2,0,1,12,68,52,,,,,,,,,,,,,,,,,,,,,,,1216.5069292999979,None,1216.5069292999979,None,1216.0066251000098,None,f,1.4233295999874827,1216.5069292999979,None,,,,,,,m,001,2021_Jul_08_1338,toilet,2021.1.3,99.85162051868816,
180,0,-4,4,1.03,,,,,2,0,2,0,1,13,69,46,,,,,,,,,,,,,,,,,,,,,,,1218.9385774999973,None,1218.9385774999973,None,1218.4382393000124,None,j,0.5597149999812245,1218.9385774999973,None,,,,,,,m,001,2021_Jul_08_1338,toilet,2021.1.3,99.85162051868816,
0,180,4,-4,0.97,,,,,2,0,2,0,1,14,70,23,,,,,,,,,,,,,,,,,,,,,,,1220.5096499999927,None,1220.5096499999927,None,1220.0093094999902,None,j,0.6365659000002779,1220.5096499999927,None,,,,,,,m,001,2021_Jul_08_1338,toilet,2021.1.3,99.85162051868816,
0,180,4,-4,1.0,,,,,2,0,2,0,1,15,71,24,,,,,,,,,,,,,,,,,,,,,,,1222.1508399000159,None,1222.1508399000159,None,1221.660425900016,None,j,0.5633412000024691,1222.1508399000159,None,,,,,,,m,001,2021_Jul_08_1338,toilet,2021.1.3,99.85162051868816,
0,0,-4,4,1.06,,,,,2,0,2,0,1,16,72,5,,,,,,,,,,,,,,,,,,,,,,,1223.7218328000163,None,1223.7218328000163,None,1223.2215230000147,None,j,0.4324211000057403,1223.7218328000163,None,,,,,,,m,001,2021_Jul_08_1338,toilet,2021.1.3,99.85162051868816,
180,180,-4,4,1.15,,,,,2,0,2,0,1,17,73,34,,,,,,,,,,,,,,,,,,,,,,,1225.162799999991,None,1225.162799999991,None,1224.662461400003,None,j,0.5114496999885887,1225.162799999991,None,,,,,,,m,001,2021_Jul_08_1338,toilet,2021.1.3,99.85162051868816,
0,0,-4,4,1.0,,,,,2,0,2,0,1,18,74,3,,,,,,,,,,,,,,,,,,,,,,,1226.6738248000038,None,1226.6738248000038,None,1226.1734866000188,None,j,0.5204846000124235,1226.6738248000038,None,,,,,,,m,001,2021_Jul_08_1338,toilet,2021.1.3,99.85162051868816,
0,180,-4,4,1.03,,,,,2,0,2,0,1,19,75,18,,,,,,,,,,,,,,,,,,,,,,,1228.1948612999986,None,1228.1948612999986,None,1227.6945198000176,None,j,0.4554830999986734,1228.1948612999986,None,,,,,,,m,001,2021_Jul_08_1338,toilet,2021.1.3,99.85162051868816,
180,180,-4,4,1.03,,,,,2,0,2,0,1,20,76,32,,,,,,,,,,,,,,,,,,,,,,,1229.6659523000126,None,1229.6659523000126,None,1229.1655188000004,None,j,0.5363208999915514,1229.6659523000126,None,,,,,,,m,001,2021_Jul_08_1338,toilet,2021.1.3,99.85162051868816,
180,180,4,-4,1.06,,,,,2,0,2,0,1,21,77,40,,,,,,,,,,,,,,,,,,,,,,,1231.2169096000143,None,1231.2169096000143,None,1230.716601299995,None,f,0.6333874000119977,1231.2169096000143,None,,,,,,,m,001,2021_Jul_08_1338,toilet,2021.1.3,99.85162051868816,
0,180,4,-4,0.94,,,,,2,0,2,0,1,22,78,22,,,,,,,,,,,,,,,,,,,,,,,1232.8580195000104,None,1232.8580195000104,None,1232.357679400011,None,j,0.5122262999939267,1232.8580195000104,None,,,,,,,m,001,2021_Jul_08_1338,toilet,2021.1.3,99.85162051868816,
180,180,4,-4,1.0,,,,,2,0,2,0,1,23,79,38,,,,,,,,,,,,,,,,,,,,,,,1234.379044100002,None,1234.379044100002,None,1233.8787112999998,None,f,0.5273671000031754,1234.379044100002,None,,,,,,,m,001,2021_Jul_08_1338,toilet,2021.1.3,99.85162051868816,
180,180,-4,4,0.85,,,,,2,0,2,0,1,24,80,28,,,,,,,,,,,,,,,,,,,,,,,1235.930103599996,None,1235.930103599996,None,1235.4297582000145,None,f,0.49624320000293665,1235.930103599996,None,,,,,,,m,001,2021_Jul_08_1338,toilet,2021.1.3,99.85162051868816,
180,0,4,-4,1.15,,,,,2,0,2,0,1,25,81,55,,,,,,,,,,,,,,,,,,,,,,,1237.441180099995,None,1237.441180099995,None,1236.9408680000051,None,f,0.5211890999926254,1237.441180099995,None,,,,,,,m,001,2021_Jul_08_1338,toilet,2021.1.3,99.85162051868816,
0,0,4,-4,1.15,,,,,2,0,2,0,1,26,82,13,,,,,,,,,,,,,,,,,,,,,,,1238.9721667999984,None,1238.9721667999984,None,1238.471825500019,None,f,0.47802800001227297,1238.9721667999984,None,,,,,,,m,001,2021_Jul_08_1338,toilet,2021.1.3,99.85162051868816,
0,180,-4,4,1.0,,,,,2,0,2,0,1,27,83,17,,,,,,,,,,,,,,,,,,,,,,,1240.4531680000073,None,1240.4531680000073,None,1239.9528295999917,None,j,0.43703550001373515,1240.4531680000073,None,,,,,,,m,001,2021_Jul_08_1338,toilet,2021.1.3,99.85162051868816,
180,0,4,-4,0.94,,,,,2,0,2,0,1,28,84,50,,,,,,,,,,,,,,,,,,,,,,,1241.894148499996,None,1241.894148499996,None,1241.3938109000155,None,j,0.4521122000005562,1241.894148499996,None,,,,,,,m,001,2021_Jul_08_1338,toilet,2021.1.3,99.85162051868816,
0,180,-4,4,0.97,,,,,2,0,2,0,1,29,85,16,,,,,,,,,,,,,,,,,,,,,,,1243.3652348000032,None,1243.3652348000032,None,1242.864805899997,None,f,1.1409622999781277,1243.3652348000032,None,,,,,,,m,001,2021_Jul_08_1338,toilet,2021.1.3,99.85162051868816,
0,0,4,-4,0.85,,,,,2,0,2,0,1,30,86,7,,,,,,,,,,,,,,,,,,,,,,,1245.516605300014,None,1245.516605300014,None,1245.0163615999918,None,j,0.39759229999617673,1245.516605300014,None,,,,,,,m,001,2021_Jul_08_1338,toilet,2021.1.3,99.85162051868816,
0,0,4,-4,1.0,,,,,2,0,2,0,1,31,87,10,,,,,,,,,,,,,,,,,,,,,,,1246.9175531000074,None,1246.9175531000074,None,1246.417220800009,None,f,1.108635900018271,1246.9175531000074,None,,,,,,,m,001,2021_Jul_08_1338,toilet,2021.1.3,99.85162051868816,
180,0,4,-4,0.97,,,,,2,0,2,0,1,32,88,51,,,,,,,,,,,,,,,,,,,,,,,1249.0289869999979,None,1249.0289869999979,None,1248.5286477000045,None,f,2.3413669999863487,1249.0289869999979,None,,,,,,,m,001,2021_Jul_08_1338,toilet,2021.1.3,99.85162051868816,
0,0,-4,4,1.03,,,,,2,0,2,0,1,33,89,4,,,,,,,,,,,,,,,,,,,,,,,1252.3813536000089,None,1252.3813536000089,None,1251.8810001999955,None,j,0.7488081000046805,1252.3813536000089,None,,,,,,,m,001,2021_Jul_08_1338,toilet,2021.1.3,99.85162051868816,
180,180,-4,4,1.0,,,,,2,0,2,0,1,34,90,31,,,,,,,,,,,,,,,,,,,,,,,1254.1324477000162,None,1254.1324477000162,None,1253.6321084999945,None,f,1.2218409999914002,1254.1324477000162,None,,,,,,,m,001,2021_Jul_08_1338,toilet,2021.1.3,99.85162051868816,
180,180,4,-4,1.03,,,,,2,0,2,0,1,35,91,39,,,,,,,,,,,,,,,,,,,,,,,1256.3639618000016,None,1256.3639618000016,None,1255.8636232000135,None,j,0.5743874000036158,1256.3639618000016,None,,,,,,,m,001,2021_Jul_08_1338,toilet,2021.1.3,99.85162051868816,
0,0,4,-4,1.06,,,,,2,0,2,0,1,36,92,12,,,,,,,,,,,,,,,,,,,,,,,1257.9551335000142,None,1257.9551335000142,None,1257.4547053000133,None,f,1.3991272000130266,1257.9551335000142,None,,,,,,,m,001,2021_Jul_08_1338,toilet,2021.1.3,99.85162051868816,
0,180,4,-4,1.15,,,,,2,0,2,0,1,37,93,27,,,,,,,,,,,,,,,,,,,,,,,1260.3666813000164,None,1260.3666813000164,None,1259.8663330000127,None,f,1.5637111999967601,1260.3666813000164,None,,,,,,,m,001,2021_Jul_08_1338,toilet,2021.1.3,99.85162051868816,
180,0,-4,4,0.94,,,,,2,0,2,0,1,38,94,43,,,,,,,,,,,,,,,,,,,,,,,1262.938420099992,None,1262.938420099992,None,1262.4380788000126,None,f,1.8397713000013027,1262.938420099992,None,,,,,,,m,001,2021_Jul_08_1338,toilet,2021.1.3,99.85162051868816,
0,180,-4,4,1.06,,,,,2,0,2,0,1,39,95,19,,,,,,,,,,,,,,,,,,,,,,,1265.7804326000041,None,1265.7804326000041,None,1265.280009900016,None,j,1.1737202000222169,1265.7804326000041,None,,,,,,,m,001,2021_Jul_08_1338,toilet,2021.1.3,99.85162051868816,
0,0,-4,4,0.85,,,,,2,0,2,0,1,40,96,0,,,,,,,,,,,,,,,,,,,,,,,1267.9618238999974,None,1267.9618238999974,None,1267.4615010000125,None,f,0.6404375999991316,1267.9618238999974,None,,,,,,,m,001,2021_Jul_08_1338,toilet,2021.1.3,99.85162051868816,
0,180,4,-4,0.85,,,,,2,0,2,0,1,41,97,21,,,,,,,,,,,,,,,,,,,,,,,1269.6029468000052,None,1269.6029468000052,None,1269.1026039000135,None,j,0.5514499999990221,1269.6029468000052,None,,,,,,,m,001,2021_Jul_08_1338,toilet,2021.1.3,99.85162051868816,
180,0,-4,4,1.15,,,,,2,0,2,0,1,42,98,48,,,,,,,,,,,,,,,,,,,,,,,1271.1640021000057,None,1271.1640021000057,None,1270.6636596000171,None,j,0.5423634000180755,1271.1640021000057,None,,,,,,,m,001,2021_Jul_08_1338,toilet,2021.1.3,99.85162051868816,
180,180,4,-4,0.97,,,,,2,0,2,0,1,43,99,37,,,,,,,,,,,,,,,,,,,,,,,1272.735065899993,None,1272.735065899993,None,1272.2347227999999,None,j,0.7790991999791004,1272.735065899993,None,,,,,,,m,001,2021_Jul_08_1338,toilet,2021.1.3,99.85162051868816,
0,0,4,-4,0.97,,,,,2,0,2,0,1,44,100,9,,,,,,,,,,,,,,,,,,,,,,,1274.516354099993,None,1274.516354099993,None,1274.0160321000149,None,j,0.8378040000097826,1274.516354099993,None,,,,,,,m,001,2021_Jul_08_1338,toilet,2021.1.3,99.85162051868816,
180,180,4,-4,1.15,,,,,2,0,2,0,1,45,101,41,,,,,,,,,,,,,,,,,,,,,,,1276.3575050999934,None,1276.3575050999934,None,1275.857179899991,None,f,0.4527182999881916,1276.3575050999934,None,,,,,,,m,001,2021_Jul_08_1338,toilet,2021.1.3,99.85162051868816,
180,0,4,-4,1.03,,,,,2,0,2,0,1,46,102,53,,,,,,,,,,,,,,,,,,,,,,,1277.8185150999925,None,1277.8185150999925,None,1277.3181805000058,None,f,0.815806500002509,1277.8185150999925,None,,,,,,,m,001,2021_Jul_08_1338,toilet,2021.1.3,99.85162051868816,
0,0,4,-4,0.94,,,,,2,0,2,0,1,47,103,8,,,,,,,,,,,,,,,,,,,,,,,1279.6497530000051,None,1279.6497530000051,None,1279.1494157999987,None,j,0.4727257000049576,1279.6497530000051,None,,,,,,,m,001,2021_Jul_08_1338,toilet,2021.1.3,99.85162051868816,
180,180,4,-4,0.94,,,,,2,0,2,0,1,48,104,36,,,,,,,,,,,,,,,,,,,,,,,1281.1408422999957,None,1281.1408422999957,None,1280.6404239000112,None,j,0.5653629000007641,1281.1408422999957,None,,,,,,,m,001,2021_Jul_08_1338,toilet,2021.1.3,99.85162051868816,
180,180,-4,4,1.06,,,,,2,0,2,0,1,49,105,33,,,,,,,,,,,,,,,,,,,,,,,1282.7118294000102,None,1282.7118294000102,None,1282.2115298999997,None,j,0.6903553000011016,1282.7118294000102,None,,,,,,,m,001,2021_Jul_08_1338,toilet,2021.1.3,99.85162051868816,
180,180,4,-4,0.85,,,,,2,0,2,0,1,50,106,35,,,,,,,,,,,,,,,,,,,,,,,1284.4029784000013,None,1284.4029784000013,None,1283.902640300017,None,j,0.42318800001521595,1284.4029784000013,None,,,,,,,m,001,2021_Jul_08_1338,toilet,2021.1.3,99.85162051868816,
180,0,-4,4,0.85,,,,,2,0,2,0,1,51,107,42,,,,,,,,,,,,,,,,,,,,,,,1285.8339507000055,None,1285.8339507000055,None,1285.3335805000097,None,f,0.48031230000196956,1285.8339507000055,None,,,,,,,m,001,2021_Jul_08_1338,toilet,2021.1.3,99.85162051868816,
0,180,4,-4,1.06,,,,,2,0,2,0,1,52,108,26,,,,,,,,,,,,,,,,,,,,,,,1287.3249667999917,None,1287.3249667999917,None,1286.8245965999959,None,f,0.8292708999942988,1287.3249667999917,None,,,,,,,m,001,2021_Jul_08_1338,toilet,2021.1.3,99.85162051868816,
180,180,-4,4,0.97,,,,,2,0,2,0,1,53,109,30,,,,,,,,,,,,,,,,,,,,,,,1289.1562741000089,None,1289.1562741000089,None,1288.6559400999977,None,f,0.789910100022098,1289.1562741000089,None,,,,,,,m,001,2021_Jul_08_1338,toilet,2021.1.3,99.85162051868816,
180,0,-4,4,1.0,,,,,2,0,2,0,1,54,110,45,,,,,,,,,,,,,,,,,,,,,,,1290.9474140999955,None,1290.9474140999955,None,1290.4470741999976,None,j,1.574857699975837,1290.9474140999955,None,,,,,,,m,001,2021_Jul_08_1338,toilet,2021.1.3,99.85162051868816,
0,0,-4,4,0.94,,,,,2,0,2,0,1,55,111,1,,,,,,,,,,,,,,,,,,,,,,,1293.5391741000058,None,1293.5391741000058,None,1293.0388409000007,None,f,0.5190088000090327,1293.5391741000058,None,,,,,,,m,001,2021_Jul_08_1338,toilet,2021.1.3,99.85162051868816,
,,,,,,,,,2,0,2,0,,,,,,,,,,,,,,,,,,,,,,,,,,,,,,,,,,,,,1294.0695399999968,None,space,29.07681070000399,1294.0695399999968,None,m,001,2021_Jul_08_1338,toilet,2021.1.3,99.85162051868816,
0,180,4,-4,1.06,,,,,3,0,3,0,0,0,0,26,,,,,,,,,,,,,,,,,1323.1693225000054,None,space,6.504923199972836,1323.1693225000054,None,1330.6943669000175,None,1330.6943669000175,None,1330.1940340000147,None,f,0.675965600006748,1330.6943669000175,None,,,,,,,m,001,2021_Jul_08_1338,toilet,2021.1.3,99.85162051868816,
0,180,4,-4,1.15,,,,,3,0,3,0,0,1,1,27,,,,,,,,,,,,,,,,,,,,,,,1332.385597400018,None,1332.385597400018,None,1331.8851798000105,None,f,0.42478150001261383,1332.385597400018,None,,,,,,,m,001,2021_Jul_08_1338,toilet,2021.1.3,99.85162051868816,
0,0,-4,4,1.15,,,,,3,0,3,0,0,2,2,6,,,,,,,,,,,,,,,,,,,,,,,1333.826512700005,None,1333.826512700005,None,1333.3261913000024,None,j,0.5356384000042453,1333.826512700005,None,,,,,,,m,001,2021_Jul_08_1338,toilet,2021.1.3,99.85162051868816,
180,180,-4,4,1.15,,,,,3,0,3,0,0,3,3,34,,,,,,,,,,,,,,,,,,,,,,,1335.3675387999974,None,1335.3675387999974,None,1334.8671981999942,None,j,0.4347919999854639,1335.3675387999974,None,,,,,,,m,001,2021_Jul_08_1338,toilet,2021.1.3,99.85162051868816,
180,180,-4,4,1.0,,,,,3,0,3,0,0,4,4,31,,,,,,,,,,,,,,,,,,,,,,,1336.8085182000068,None,1336.8085182000068,None,1336.3081735000014,None,f,0.5136630000197329,1336.8085182000068,None,,,,,,,m,001,2021_Jul_08_1338,toilet,2021.1.3,99.85162051868816,
180,0,-4,4,1.15,,,,,3,0,3,0,0,5,5,48,,,,,,,,,,,,,,,,,,,,,,,1338.3295498999942,None,1338.3295498999942,None,1337.8292065999995,None,j,0.43261899999924935,1338.3295498999942,None,,,,,,,m,001,2021_Jul_08_1338,toilet,2021.1.3,99.85162051868816,
180,180,-4,4,0.94,,,,,3,0,3,0,0,6,6,29,,,,,,,,,,,,,,,,,,,,,,,1339.7706190000172,None,1339.7706190000172,None,1339.2701864000119,None,f,0.4477011999988463,1339.7706190000172,None,,,,,,,m,001,2021_Jul_08_1338,toilet,2021.1.3,99.85162051868816,
180,0,4,-4,0.94,,,,,3,0,3,0,0,7,7,50,,,,,,,,,,,,,,,,,,,,,,,1341.2315490000183,None,1341.2315490000183,None,1340.7312576000113,None,j,0.31460230000084266,1341.2315490000183,None,,,,,,,m,001,2021_Jul_08_1338,toilet,2021.1.3,99.85162051868816,
180,180,4,-4,0.97,,,,,3,0,3,0,0,8,8,37,,,,,,,,,,,,,,,,,,,,,,,1342.5524150000128,None,1342.5524150000128,None,1342.0520733000012,None,j,0.4977251999953296,1342.5524150000128,None,,,,,,,m,001,2021_Jul_08_1338,toilet,2021.1.3,99.85162051868816,
180,180,-4,4,1.06,,,,,3,0,3,0,0,9,9,33,,,,,,,,,,,,,,,,,,,,,,,1344.0534288999916,None,1344.0534288999916,None,1343.5531005999947,None,j,0.5328686999855563,1344.0534288999916,None,,,,,,,m,001,2021_Jul_08_1338,toilet,2021.1.3,99.85162051868816,
0,180,4,-4,0.94,,,,,3,0,3,0,0,10,10,22,,,,,,,,,,,,,,,,,,,,,,,1345.6044827000005,None,1345.6044827000005,None,1345.1041484000161,None,j,0.3576545999967493,1345.6044827000005,None,,,,,,,m,001,2021_Jul_08_1338,toilet,2021.1.3,99.85162051868816,
180,0,-4,4,0.85,,,,,3,0,3,0,0,11,11,42,,,,,,,,,,,,,,,,,,,,,,,1346.9654790000059,None,1346.9654790000059,None,1346.4650613999984,None,f,0.3887455000076443,1346.9654790000059,None,,,,,,,m,001,2021_Jul_08_1338,toilet,2021.1.3,99.85162051868816,
180,0,-4,4,0.94,,,,,3,0,3,0,0,12,12,43,,,,,,,,,,,,,,,,,,,,,,,1348.366387200018,None,1348.366387200018,None,1347.8660148000054,None,f,0.4119028999994043,1348.366387200018,None,,,,,,,m,001,2021_Jul_08_1338,toilet,2021.1.3,99.85162051868816,
180,180,4,-4,1.15,,,,,3,0,3,0,0,13,13,41,,,,,,,,,,,,,,,,,,,,,,,1349.7873162000033,None,1349.7873162000033,None,1349.2869808000105,None,f,0.4468401000194717,1349.7873162000033,None,,,,,,,m,001,2021_Jul_08_1338,toilet,2021.1.3,99.85162051868816,
180,180,4,-4,0.94,,,,,3,0,3,0,0,14,14,36,,,,,,,,,,,,,,,,,,,,,,,1351.238301800011,None,1351.238301800011,None,1350.737960700004,None,j,0.48400260001653805,1351.238301800011,None,,,,,,,m,001,2021_Jul_08_1338,toilet,2021.1.3,99.85162051868816,
180,180,-4,4,1.03,,,,,3,0,3,0,0,15,15,32,,,,,,,,,,,,,,,,,,,,,,,1352.739323899994,None,1352.739323899994,None,1352.238974100008,None,j,0.390989699983038,1352.739323899994,None,,,,,,,m,001,2021_Jul_08_1338,toilet,2021.1.3,99.85162051868816,
0,0,-4,4,0.94,,,,,3,0,3,0,0,16,16,1,,,,,,,,,,,,,,,,,,,,,,,1354.1303378000157,None,1354.1303378000157,None,1353.629922299995,None,f,0.4397925999946892,1354.1303378000157,None,,,,,,,m,001,2021_Jul_08_1338,toilet,2021.1.3,99.85162051868816,
180,0,4,-4,1.15,,,,,3,0,3,0,0,17,17,55,,,,,,,,,,,,,,,,,,,,,,,1355.5713219000027,None,1355.5713219000027,None,1355.070978600008,None,f,0.7268013999855611,1355.5713219000027,None,,,,,,,m,001,2021_Jul_08_1338,toilet,2021.1.3,99.85162051868816,
0,0,-4,4,1.0,,,,,3,0,3,0,0,18,18,3,,,,,,,,,,,,,,,,,,,,,,,1357.3024118000176,None,1357.3024118000176,None,1356.8020750000142,None,j,0.6758460999990348,1357.3024118000176,None,,,,,,,m,001,2021_Jul_08_1338,toilet,2021.1.3,99.85162051868816,
0,180,-4,4,0.85,,,,,3,0,3,0,0,19,19,14,,,,,,,,,,,,,,,,,,,,,,,1358.9835531999997,None,1358.9835531999997,None,1358.4832138000056,None,f,0.4345892999845091,1358.9835531999997,None,,,,,,,m,001,2021_Jul_08_1338,toilet,2021.1.3,99.85162051868816,
180,180,-4,4,0.97,,,,,3,0,3,0,0,20,20,30,,,,,,,,,,,,,,,,,,,,,,,1360.424535099999,None,1360.424535099999,None,1359.9241913000005,None,j,0.8656306000193581,1360.424535099999,None,,,,,,,m,001,2021_Jul_08_1338,toilet,2021.1.3,99.85162051868816,
0,180,-4,4,1.0,,,,,3,0,3,0,0,21,21,17,,,,,,,,,,,,,,,,,,,,,,,1362.2958822000073,None,1362.2958822000073,None,1361.7955539000104,None,f,2.5782553000026383,1362.2958822000073,None,,,,,,,m,001,2021_Jul_08_1338,toilet,2021.1.3,99.85162051868816,
0,180,-4,4,1.15,,,,,3,0,3,0,0,22,22,20,,,,,,,,,,,,,,,,,,,,,,,1365.878237099998,None,1365.878237099998,None,1365.3778879000165,None,j,0.5320012000156567,1365.878237099998,None,,,,,,,m,001,2021_Jul_08_1338,toilet,2021.1.3,99.85162051868816,
0,0,-4,4,0.85,,,,,3,0,3,0,0,23,23,0,,,,,,,,,,,,,,,,,,,,,,,1367.429281299992,None,1367.429281299992,None,1366.928946400003,None,f,0.37301579999621026,1367.429281299992,None,,,,,,,m,001,2021_Jul_08_1338,toilet,2021.1.3,99.85162051868816,
180,0,4,-4,0.97,,,,,3,0,3,0,0,24,24,51,,,,,,,,,,,,,,,,,,,,,,,1368.8202239999955,None,1368.8202239999955,None,1368.319963899994,None,j,0.32598850000067614,1368.8202239999955,None,,,,,,,m,001,2021_Jul_08_1338,toilet,2021.1.3,99.85162051868816,
0,0,-4,4,1.06,,,,,3,0,3,0,0,25,25,5,,,,,,,,,,,,,,,,,,,,,,,1370.1512202000013,None,1370.1512202000013,None,1369.650880000001,None,j,0.4828838999965228,1370.1512202000013,None,,,,,,,m,001,2021_Jul_08_1338,toilet,2021.1.3,99.85162051868816,
180,0,-4,4,0.97,,,,,3,0,3,0,0,26,26,44,,,,,,,,,,,,,,,,,,,,,,,1371.642138700001,None,1371.642138700001,None,1371.141803800012,None,f,0.41600300002028234,1371.642138700001,None,,,,,,,m,001,2021_Jul_08_1338,toilet,2021.1.3,99.85162051868816,
0,0,-4,4,1.03,,,,,3,0,3,0,0,27,27,4,,,,,,,,,,,,,,,,,,,,,,,1373.0630997999979,None,1373.0630997999979,None,1372.5627636999998,None,j,0.5153097999864258,1373.0630997999979,None,,,,,,,m,001,2021_Jul_08_1338,toilet,2021.1.3,99.85162051868816,
180,0,4,-4,1.06,,,,,3,0,3,0,0,28,28,54,,,,,,,,,,,,,,,,,,,,,,,1374.5941439000017,None,1374.5941439000017,None,1374.0938007000077,None,f,0.4880637000023853,1374.5941439000017,None,,,,,,,m,001,2021_Jul_08_1338,toilet,2021.1.3,99.85162051868816,
0,0,4,-4,1.15,,,,,3,0,3,0,0,29,29,13,,,,,,,,,,,,,,,,,,,,,,,1376.0952868000022,None,1376.0952868000022,None,1375.5948164000001,None,f,0.5388391999877058,1376.0952868000022,None,,,,,,,m,001,2021_Jul_08_1338,toilet,2021.1.3,99.85162051868816,
180,180,-4,4,0.85,,,,,3,0,3,0,0,30,30,28,,,,,,,,,,,,,,,,,,,,,,,1377.6362848000135,None,1377.6362848000135,None,1377.1359540999983,None,f,0.4220191999920644,1377.6362848000135,None,,,,,,,m,001,2021_Jul_08_1338,toilet,2021.1.3,99.85162051868816,
0,0,4,-4,1.0,,,,,3,0,3,0,0,31,31,10,,,,,,,,,,,,,,,,,,,,,,,1379.0771796999907,None,1379.0771796999907,None,1378.5768487000023,None,j,0.533086799987359,1379.0771796999907,None,,,,,,,m,001,2021_Jul_08_1338,toilet,2021.1.3,99.85162051868816,
0,180,4,-4,1.0,,,,,3,0,3,0,0,32,32,24,,,,,,,,,,,,,,,,,,,,,,,1380.6182279000059,None,1380.6182279000059,None,1380.1178918000078,None,j,0.8482360999914818,1380.6182279000059,None,,,,,,,m,001,2021_Jul_08_1338,toilet,2021.1.3,99.85162051868816,
0,180,4,-4,0.85,,,,,3,0,3,0,0,33,33,21,,,,,,,,,,,,,,,,,,,,,,,1382.4894961999962,None,1382.4894961999962,None,1381.989161000005,None,j,0.49675309998565353,1382.4894961999962,None,,,,,,,m,001,2021_Jul_08_1338,toilet,2021.1.3,99.85162051868816,
180,0,-4,4,1.0,,,,,3,0,3,0,0,34,34,45,,,,,,,,,,,,,,,,,,,,,,,1383.9906031000137,None,1383.9906031000137,None,1383.49017070001,None,j,0.4676398000156041,1383.9906031000137,None,,,,,,,m,001,2021_Jul_08_1338,toilet,2021.1.3,99.85162051868816,
0,180,4,-4,1.03,,,,,3,0,3,0,0,35,35,25,,,,,,,,,,,,,,,,,,,,,,,1385.4715353999927,None,1385.4715353999927,None,1384.9712686999992,None,f,0.8587065000028815,1385.4715353999927,None,,,,,,,m,001,2021_Jul_08_1338,toilet,2021.1.3,99.85162051868816,
0,180,-4,4,1.03,,,,,3,0,3,0,0,36,36,18,,,,,,,,,,,,,,,,,,,,,,,1387.332773800008,None,1387.332773800008,None,1386.8324378000107,None,j,0.5173763000057079,1387.332773800008,None,,,,,,,m,001,2021_Jul_08_1338,toilet,2021.1.3,99.85162051868816,
180,180,4,-4,1.06,,,,,3,0,3,0,0,37,37,40,,,,,,,,,,,,,,,,,,,,,,,1388.853818100004,None,1388.853818100004,None,1388.3534654999967,None,j,0.9003048000158742,1388.853818100004,None,,,,,,,m,001,2021_Jul_08_1338,toilet,2021.1.3,99.85162051868816,
0,180,-4,4,1.06,,,,,3,0,3,0,0,38,38,19,,,,,,,,,,,,,,,,,,,,,,,1390.7551875000063,None,1390.7551875000063,None,1390.2547591000039,None,j,0.7431363000068814,1390.7551875000063,None,,,,,,,m,001,2021_Jul_08_1338,toilet,2021.1.3,99.85162051868816,
180,180,4,-4,0.85,,,,,3,0,3,0,0,39,39,35,,,,,,,,,,,,,,,,,,,,,,,1392.5163291000063,None,1392.5163291000063,None,1392.0160525999963,None,j,0.5018011000065599,1392.5163291000063,None,,,,,,,m,001,2021_Jul_08_1338,toilet,2021.1.3,99.85162051868816,
0,0,-4,4,0.97,,,,,3,0,3,0,0,40,40,2,,,,,,,,,,,,,,,,,,,,,,,1394.027320699999,None,1394.027320699999,None,1393.5269781000097,None,j,1.519047599984333,1394.027320699999,None,,,,,,,m,001,2021_Jul_08_1338,toilet,2021.1.3,99.85162051868816,
180,0,4,-4,0.85,,,,,3,0,3,0,0,41,41,49,,,,,,,,,,,,,,,,,,,,,,,1396.5590331999992,None,1396.5590331999992,None,1396.0586948000127,None,j,0.4273078999831341,1396.5590331999992,None,,,,,,,m,001,2021_Jul_08_1338,toilet,2021.1.3,99.85162051868816,
180,0,-4,4,1.03,,,,,3,0,3,0,0,42,42,46,,,,,,,,,,,,,,,,,,,,,,,1398.0100187000062,None,1398.0100187000062,None,1397.509680499992,None,j,2.144258600019384,1398.0100187000062,None,,,,,,,m,001,2021_Jul_08_1338,toilet,2021.1.3,99.85162051868816,
180,180,4,-4,1.03,,,,,3,0,3,0,0,43,43,39,,,,,,,,,,,,,,,,,,,,,,,1401.1721678000176,None,1401.1721678000176,None,1400.671823200013,None,j,0.7099629000003915,1401.1721678000176,None,,,,,,,m,001,2021_Jul_08_1338,toilet,2021.1.3,99.85162051868816,
180,0,-4,4,1.06,,,,,3,0,3,0,0,44,44,47,,,,,,,,,,,,,,,,,,,,,,,1402.8833260000101,None,1402.8833260000101,None,1402.3829845,None,j,0.5508295000181533,1402.8833260000101,None,,,,,,,m,001,2021_Jul_08_1338,toilet,2021.1.3,99.85162051868816,
0,0,4,-4,0.94,,,,,3,0,3,0,0,45,45,8,,,,,,,,,,,,,,,,,,,,,,,1404.4443791999947,None,1404.4443791999947,None,1403.94405369999,None,j,0.5578761999786366,1404.4443791999947,None,,,,,,,m,001,2021_Jul_08_1338,toilet,2021.1.3,99.85162051868816,
0,180,-4,4,0.97,,,,,3,0,3,0,0,46,46,16,,,,,,,,,,,,,,,,,,,,,,,1406.00553580001,None,1406.00553580001,None,1405.505101000017,None,f,0.8847554000094533,1406.00553580001,None,,,,,,,m,001,2021_Jul_08_1338,toilet,2021.1.3,99.85162051868816,
0,180,-4,4,0.94,,,,,3,0,3,0,0,47,47,15,,,,,,,,,,,,,,,,,,,,,,,1407.906727099995,None,1407.906727099995,None,1407.4064271000098,None,f,0.6315122999949381,1407.906727099995,None,,,,,,,m,001,2021_Jul_08_1338,toilet,2021.1.3,99.85162051868816,
0,180,4,-4,0.97,,,,,3,0,3,0,0,48,48,23,,,,,,,,,,,,,,,,,,,,,,,1409.5478469000082,None,1409.5478469000082,None,1409.0475078000163,None,j,0.6223603000107687,1409.5478469000082,None,,,,,,,m,001,2021_Jul_08_1338,toilet,2021.1.3,99.85162051868816,
180,0,4,-4,1.03,,,,,3,0,3,0,0,49,49,53,,,,,,,,,,,,,,,,,,,,,,,1411.1889579000126,None,1411.1889579000126,None,1410.688620800007,None,f,0.5012640999921132,1411.1889579000126,None,,,,,,,m,001,2021_Jul_08_1338,toilet,2021.1.3,99.85162051868816,
0,0,4,-4,0.85,,,,,3,0,3,0,0,50,50,7,,,,,,,,,,,,,,,,,,,,,,,1412.6999809000117,None,1412.6999809000117,None,1412.1996439000068,None,j,0.47834130001137964,1412.6999809000117,None,,,,,,,m,001,2021_Jul_08_1338,toilet,2021.1.3,99.85162051868816,
180,0,4,-4,1.0,,,,,3,0,3,0,0,51,51,52,,,,,,,,,,,,,,,,,,,,,,,1414.1910833000147,None,1414.1910833000147,None,1413.690731300012,None,f,0.587057900003856,1414.1910833000147,None,,,,,,,m,001,2021_Jul_08_1338,toilet,2021.1.3,99.85162051868816,
0,0,4,-4,0.97,,,,,3,0,3,0,0,52,52,9,,,,,,,,,,,,,,,,,,,,,,,1415.792076600017,None,1415.792076600017,None,1415.291741299996,None,j,0.6021892999997362,1415.792076600017,None,,,,,,,m,001,2021_Jul_08_1338,toilet,2021.1.3,99.85162051868816,
0,0,4,-4,1.06,,,,,3,0,3,0,0,53,53,12,,,,,,,,,,,,,,,,,,,,,,,1417.4031689999974,None,1417.4031689999974,None,1416.9028324999963,None,f,0.47903339998447336,1417.4031689999974,None,,,,,,,m,001,2021_Jul_08_1338,toilet,2021.1.3,99.85162051868816,
180,180,4,-4,1.0,,,,,3,0,3,0,0,54,54,38,,,,,,,,,,,,,,,,,,,,,,,1418.8941809000098,None,1418.8941809000098,None,1418.393841800018,None,f,1.3242126000113785,1418.8941809000098,None,,,,,,,m,001,2021_Jul_08_1338,toilet,2021.1.3,99.85162051868816,
0,0,4,-4,1.03,,,,,3,0,3,0,0,55,55,11,,,,,,,,,,,,,,,,,,,,,,,1421.2358629000082,None,1421.2358629000082,None,1420.7354298999999,None,j,1.0623855000012554,1421.2358629000082,None,,,,,,,m,001,2021_Jul_08_1338,toilet,2021.1.3,99.85162051868816,
0,180,-4,4,0.97,,,,,3,0,3,0,1,0,56,16,,,,,,,,,,,,,,,,,,,,,,,1423.3071782999905,None,1423.3071782999905,None,1422.8068360000034,None,f,1.0389332000049762,1423.3071782999905,None,,,,,,,m,001,2021_Jul_08_1338,toilet,2021.1.3,99.85162051868816,
180,0,-4,4,1.06,,,,,3,0,3,0,1,1,57,47,,,,,,,,,,,,,,,,,,,,,,,1425.3485636000114,None,1425.3485636000114,None,1424.8482184000022,None,j,0.5975459000037517,1425.3485636000114,None,,,,,,,m,001,2021_Jul_08_1338,toilet,2021.1.3,99.85162051868816,
0,180,-4,4,1.03,,,,,3,0,3,0,1,2,58,18,,,,,,,,,,,,,,,,,,,,,,,1426.9496431000007,None,1426.9496431000007,None,1426.449304800015,None,j,0.6605467000044882,1426.9496431000007,None,,,,,,,m,001,2021_Jul_08_1338,toilet,2021.1.3,99.85162051868816,
