ori_st,ori_pr,xpos_st,xpos_pr,size,trials_3.thisRepN,trials_3.thisTrialN,trials_3.thisN,trials_3.thisIndex,trials_2.thisRepN,trials_2.thisTrialN,trials_2.thisN,trials_2.thisIndex,trials.thisRepN,trials.thisTrialN,trials.thisN,trials.thisIndex,wel_pra.started,wel_pra.stopped,resp_wel.keys,resp_wel.rt,resp_wel.started,resp_wel.stopped,standard_pra.started,standard_pra.stopped,prove_pra.started,prove_pra.stopped,fixation.started,fixation.stopped,resp_pra.keys,resp_pra.rt,resp_pra.started,resp_pra.stopped,instr.started,instr.stopped,key_resp_2.keys,key_resp_2.rt,key_resp_2.started,key_resp_2.stopped,standard.started,standard.stopped,probe.started,probe.stopped,text.started,text.stopped,resp.keys,resp.rt,resp.started,resp.stopped,text_2.started,text_2.stopped,key_resp.keys,key_resp.rt,key_resp.started,key_resp.stopped,participant,session,date,expName,psychopyVersion,frameRate,
,,,,,,,,,,,,,,,,,13.433204800006934,None,space,62.570348100038245,13.433204800006934,None,,,,,,,,,,,,,,,,,,,,,,,,,,,,,,,,,c,001,2021_Jul_01_0959,toilet,2021.1.3,99.87346031564225,
180,0,-4,4,1.15,0,0,0,15,,,,,,,,,,,,,,,77.0262627999764,None,77.0262627999764,None,76.5259271999821,None,j,3.4253180999075994,77.0262627999764,None,,,,,,,,,,,,,,,,,,,,,,,c,001,2021_Jul_01_0959,toilet,2021.1.3,99.87346031564225,
0,0,4,-4,0.85,0,1,1,1,,,,,,,,,,,,,,,81.46931459999178,None,81.46931459999178,None,80.96893840003759,None,j,1.4781095000216737,81.46931459999178,None,,,,,,,,,,,,,,,,,,,,,,,c,001,2021_Jul_01_0959,toilet,2021.1.3,99.87346031564225,
0,180,-4,4,0.85,0,2,2,4,,,,,,,,,,,,,,,83.9509561000159,None,83.9509561000159,None,83.45062220003456,None,f,0.45249090006109327,83.9509561000159,None,,,,,,,,,,,,,,,,,,,,,,,c,001,2021_Jul_01_0959,toilet,2021.1.3,99.87346031564225,
180,180,-4,4,0.85,0,3,3,9,,,,,,,,,,,,,,,85.41194409993477,None,85.41194409993477,None,84.91161019995343,None,f,0.4156811999855563,85.41194409993477,None,,,,,,,,,,,,,,,,,,,,,,,c,001,2021_Jul_01_0959,toilet,2021.1.3,99.87346031564225,
0,180,4,-4,0.85,0,4,4,5,,,,,,,,,,,,,,,86.83300049998797,None,86.83300049998797,None,86.3426754999673,None,j,0.49868509999942034,86.83300049998797,None,,,,,,,,,,,,,,,,,,,,,,,c,001,2021_Jul_01_0959,toilet,2021.1.3,99.87346031564225,
0,0,-4,4,1.15,0,5,5,2,,,,,,,,,,,,,,,88.34393139998429,None,88.34393139998429,None,87.8436284000054,None,j,0.45950839994475245,88.34393139998429,None,,,,,,,,,,,,,,,,,,,,,,,c,001,2021_Jul_01_0959,toilet,2021.1.3,99.87346031564225,
0,0,-4,4,0.85,0,6,6,0,,,,,,,,,,,,,,,89.80492150003556,None,89.80492150003556,None,89.30459069996141,None,f,0.40647290006745607,89.80492150003556,None,,,,,,,,,,,,,,,,,,,,,,,c,001,2021_Jul_01_0959,toilet,2021.1.3,99.87346031564225,
180,0,-4,4,0.85,0,7,7,12,,,,,,,,,,,,,,,91.21587820001878,None,91.21587820001878,None,90.7155060999794,None,f,0.3396536000072956,91.21587820001878,None,,,,,,,,,,,,,,,,,,,,,,,c,001,2021_Jul_01_0959,toilet,2021.1.3,99.87346031564225,
180,180,-4,4,1.15,0,8,8,10,,,,,,,,,,,,,,,92.56679029995576,None,92.56679029995576,None,92.06645429995842,None,j,0.41285249998327345,92.56679029995576,None,,,,,,,,,,,,,,,,,,,,,,,c,001,2021_Jul_01_0959,toilet,2021.1.3,99.87346031564225,
180,0,-4,4,0.85,0,9,9,13,,,,,,,,,,,,,,,93.9977614999516,None,93.9977614999516,None,93.49743949994445,None,f,0.40583679999690503,93.9977614999516,None,,,,,,,,,,,,,,,,,,,,,,,c,001,2021_Jul_01_0959,toilet,2021.1.3,99.87346031564225,
0,180,-4,4,1.15,0,10,10,6,,,,,,,,,,,,,,,95.41881299996749,None,95.41881299996749,None,94.91838629997801,None,j,0.6005784999579191,95.41881299996749,None,,,,,,,,,,,,,,,,,,,,,,,c,001,2021_Jul_01_0959,toilet,2021.1.3,99.87346031564225,
0,180,4,-4,1.15,0,11,11,7,,,,,,,,,,,,,,,97.019809099962,None,97.019809099962,None,96.51946979993954,None,f,0.3916445999639109,97.019809099962,None,,,,,,,,,,,,,,,,,,,,,,,c,001,2021_Jul_01_0959,toilet,2021.1.3,99.87346031564225,
180,180,-4,4,1.15,0,12,12,11,,,,,,,,,,,,,,,98.4107485000277,None,98.4107485000277,None,97.9104129000334,None,j,0.5046900999732316,98.4107485000277,None,,,,,,,,,,,,,,,,,,,,,,,c,001,2021_Jul_01_0959,toilet,2021.1.3,99.87346031564225,
0,0,4,-4,1.15,0,13,13,3,,,,,,,,,,,,,,,99.92177489993628,None,99.92177489993628,None,99.42143300001044,None,f,0.4337082999991253,99.92177489993628,None,,,,,,,,,,,,,,,,,,,,,,,c,001,2021_Jul_01_0959,toilet,2021.1.3,99.87346031564225,
180,180,-4,4,0.85,0,14,14,8,,,,,,,,,,,,,,,101.36284339998383,None,101.36284339998383,None,100.86241169995628,None,f,0.44865689997095615,101.36284339998383,None,,,,,,,,,,,,,,,,,,,,,,,c,001,2021_Jul_01_0959,toilet,2021.1.3,99.87346031564225,
180,0,-4,4,1.15,0,15,15,14,,,,,,,,,,,,,,,102.82382499997038,None,102.82382499997038,None,102.32339849998243,None,j,0.4117499999701977,102.82382499997038,None,,,,,,,,,,,,,,,,,,,,,,,c,001,2021_Jul_01_0959,toilet,2021.1.3,99.87346031564225,
180,0,-4,4,1.15,,,,,0,0,0,0,0,0,0,48,,,,,,,,,,,,,,,,,103.26408939994872,None,space,78.05128219991457,103.26408939994872,None,182.32762560003903,None,182.32762560003903,None,181.82725630002096,None,j,0.6517012999393046,182.32762560003903,None,,,,,,,c,001,2021_Jul_01_0959,toilet,2021.1.3,99.87346031564225,
0,180,4,-4,1.0,,,,,0,0,0,0,0,1,1,24,,,,,,,,,,,,,,,,,,,,,,,183.97872759995516,None,183.97872759995516,None,183.47838740004227,None,j,0.37663730001077056,183.97872759995516,None,,,,,,,c,001,2021_Jul_01_0959,toilet,2021.1.3,99.87346031564225,
180,180,-4,4,1.15,,,,,0,0,0,0,0,2,2,34,,,,,,,,,,,,,,,,,,,,,,,185.3596516000107,None,185.3596516000107,None,184.85931349999737,None,j,0.5797109000850469,185.3596516000107,None,,,,,,,c,001,2021_Jul_01_0959,toilet,2021.1.3,99.87346031564225,
0,0,-4,4,1.03,,,,,0,0,0,0,0,3,3,4,,,,,,,,,,,,,,,,,,,,,,,186.94073120004032,None,186.94073120004032,None,186.44038339995313,None,j,0.6627199000213295,186.94073120004032,None,,,,,,,c,001,2021_Jul_01_0959,toilet,2021.1.3,99.87346031564225,
180,0,4,-4,0.97,,,,,0,0,0,0,0,4,4,51,,,,,,,,,,,,,,,,,,,,,,,188.62186159996781,None,188.62186159996781,None,188.12152259994764,None,j,0.9494725000113249,188.62186159996781,None,,,,,,,c,001,2021_Jul_01_0959,toilet,2021.1.3,99.87346031564225,
180,0,4,-4,1.15,,,,,0,0,0,0,0,5,5,55,,,,,,,,,,,,,,,,,,,,,,,190.57322090002708,None,190.57322090002708,None,190.07293789996766,None,f,0.502281800028868,190.57322090002708,None,,,,,,,c,001,2021_Jul_01_0959,toilet,2021.1.3,99.87346031564225,
0,0,4,-4,1.0,,,,,0,0,0,0,0,6,6,10,,,,,,,,,,,,,,,,,,,,,,,192.08420759998262,None,192.08420759998262,None,191.5938710999908,None,f,5.455378599930555,192.08420759998262,None,,,,,,,c,001,2021_Jul_01_0959,toilet,2021.1.3,99.87346031564225,
0,180,4,-4,0.94,,,,,0,0,0,0,0,7,7,22,,,,,,,,,,,,,,,,,,,,,,,198.54861810000148,None,198.54861810000148,None,198.0483377999626,None,j,1.2787170000374317,198.54861810000148,None,,,,,,,c,001,2021_Jul_01_0959,toilet,2021.1.3,99.87346031564225,
0,0,4,-4,1.06,,,,,0,0,0,0,0,8,8,12,,,,,,,,,,,,,,,,,,,,,,,200.83013030001894,None,200.83013030001894,None,200.32979089999571,None,f,0.5493391000200063,200.83013030001894,None,,,,,,,c,001,2021_Jul_01_0959,toilet,2021.1.3,99.87346031564225,
180,180,4,-4,0.94,,,,,0,0,0,0,0,9,9,36,,,,,,,,,,,,,,,,,,,,,,,202.39118729997426,None,202.39118729997426,None,201.89085259998683,None,j,0.684301899978891,202.39118729997426,None,,,,,,,c,001,2021_Jul_01_0959,toilet,2021.1.3,99.87346031564225,
0,180,-4,4,0.85,,,,,0,0,0,0,0,10,10,14,,,,,,,,,,,,,,,,,,,,,,,204.0824285999406,None,204.0824285999406,None,203.5920019999612,None,f,0.5609047000762075,204.0824285999406,None,,,,,,,c,001,2021_Jul_01_0959,toilet,2021.1.3,99.87346031564225,
180,0,-4,4,0.97,,,,,0,0,0,0,0,11,11,44,,,,,,,,,,,,,,,,,,,,,,,205.6434308999451,None,205.6434308999451,None,205.14314509998076,None,f,0.8720417999429628,205.6434308999451,None,,,,,,,c,001,2021_Jul_01_0959,toilet,2021.1.3,99.87346031564225,
180,180,-4,4,0.97,,,,,0,0,0,0,0,12,12,30,,,,,,,,,,,,,,,,,,,,,,,207.5246631000191,None,207.5246631000191,None,207.02433129993733,None,f,1.5986901000142097,207.5246631000191,None,,,,,,,c,001,2021_Jul_01_0959,toilet,2021.1.3,99.87346031564225,
0,0,-4,4,1.15,,,,,0,0,0,0,0,13,13,6,,,,,,,,,,,,,,,,,,,,,,,210.1264269000385,None,210.1264269000385,None,209.62608800001908,None,j,0.5173547000158578,210.1264269000385,None,,,,,,,c,001,2021_Jul_01_0959,toilet,2021.1.3,99.87346031564225,
0,180,-4,4,1.15,,,,,0,0,0,0,0,14,14,20,,,,,,,,,,,,,,,,,,,,,,,211.64745930000208,None,211.64745930000208,None,211.14720280002803,None,j,0.5799499000422657,211.64745930000208,None,,,,,,,c,001,2021_Jul_01_0959,toilet,2021.1.3,99.87346031564225,
0,180,4,-4,1.15,,,,,0,0,0,0,0,15,15,27,,,,,,,,,,,,,,,,,,,,,,,213.23858120001387,None,213.23858120001387,None,212.73819980002008,None,f,0.7167743999743834,213.23858120001387,None,,,,,,,c,001,2021_Jul_01_0959,toilet,2021.1.3,99.87346031564225,
0,180,-4,4,1.06,,,,,0,0,0,0,0,16,16,19,,,,,,,,,,,,,,,,,,,,,,,214.95970230002422,None,214.95970230002422,None,214.45936139998958,None,j,1.667783600045368,214.95970230002422,None,,,,,,,c,001,2021_Jul_01_0959,toilet,2021.1.3,99.87346031564225,
0,180,-4,4,1.0,,,,,0,0,0,0,0,17,17,17,,,,,,,,,,,,,,,,,,,,,,,217.65152790001594,None,217.65152790001594,None,217.15119600004982,None,j,0.9919004000257701,217.65152790001594,None,,,,,,,c,001,2021_Jul_01_0959,toilet,2021.1.3,99.87346031564225,
0,180,4,-4,0.97,,,,,0,0,0,0,0,18,18,23,,,,,,,,,,,,,,,,,,,,,,,219.66296889993828,None,219.66296889993828,None,219.16264230001252,None,j,2.020345500088297,219.66296889993828,None,,,,,,,c,001,2021_Jul_01_0959,toilet,2021.1.3,99.87346031564225,
0,180,4,-4,0.85,,,,,0,0,0,0,0,19,19,21,,,,,,,,,,,,,,,,,,,,,,,222.68493480002508,None,222.68493480002508,None,222.1845953000011,None,j,0.7425715000135824,222.68493480002508,None,,,,,,,c,001,2021_Jul_01_0959,toilet,2021.1.3,99.87346031564225,
180,180,4,-4,0.85,,,,,0,0,0,0,0,20,20,35,,,,,,,,,,,,,,,,,,,,,,,224.4461244000122,None,224.4461244000122,None,223.94579339993652,None,j,0.5654470000881702,224.4461244000122,None,,,,,,,c,001,2021_Jul_01_0959,toilet,2021.1.3,99.87346031564225,
180,0,4,-4,1.0,,,,,0,0,0,0,0,21,21,52,,,,,,,,,,,,,,,,,,,,,,,226.03721810004208,None,226.03721810004208,None,225.5368628000142,None,j,2.862317700055428,226.03721810004208,None,,,,,,,c,001,2021_Jul_01_0959,toilet,2021.1.3,99.87346031564225,
180,180,-4,4,1.06,,,,,0,0,0,0,0,22,22,33,,,,,,,,,,,,,,,,,,,,,,,229.8998231999576,None,229.8998231999576,None,229.39950429997407,None,j,0.583604000043124,229.8998231999576,None,,,,,,,c,001,2021_Jul_01_0959,toilet,2021.1.3,99.87346031564225,
0,0,4,-4,1.15,,,,,0,0,0,0,0,23,23,13,,,,,,,,,,,,,,,,,,,,,,,231.51091379998252,None,231.51091379998252,None,231.0105725999456,None,f,0.5724746999330819,231.51091379998252,None,,,,,,,c,001,2021_Jul_01_0959,toilet,2021.1.3,99.87346031564225,
180,180,-4,4,1.03,,,,,0,0,0,0,0,24,24,32,,,,,,,,,,,,,,,,,,,,,,,233.10199009999633,None,233.10199009999633,None,232.6016470999457,None,j,0.6613571000052616,233.10199009999633,None,,,,,,,c,001,2021_Jul_01_0959,toilet,2021.1.3,99.87346031564225,
0,0,-4,4,0.97,,,,,0,0,0,0,0,25,25,2,,,,,,,,,,,,,,,,,,,,,,,234.76319990004413,None,234.76319990004413,None,234.26281480002217,None,f,0.9680706000654027,234.76319990004413,None,,,,,,,c,001,2021_Jul_01_0959,toilet,2021.1.3,99.87346031564225,
180,0,4,-4,0.85,,,,,0,0,0,0,0,26,26,49,,,,,,,,,,,,,,,,,,,,,,,236.734452100005,None,236.734452100005,None,236.23411249998026,None,j,0.5968254000181332,236.734452100005,None,,,,,,,c,001,2021_Jul_01_0959,toilet,2021.1.3,99.87346031564225,
0,180,-4,4,0.97,,,,,0,0,0,0,0,27,27,16,,,,,,,,,,,,,,,,,,,,,,,238.3355338999536,None,238.3355338999536,None,237.83520029997453,None,f,0.7397773000411689,238.3355338999536,None,,,,,,,c,001,2021_Jul_01_0959,toilet,2021.1.3,99.87346031564225,
0,0,4,-4,1.03,,,,,0,0,0,0,0,28,28,11,,,,,,,,,,,,,,,,,,,,,,,240.086720900028,None,240.086720900028,None,239.58647580002435,None,f,0.7486342000775039,240.086720900028,None,,,,,,,c,001,2021_Jul_01_0959,toilet,2021.1.3,99.87346031564225,
0,180,-4,4,0.94,,,,,0,0,0,0,0,29,29,15,,,,,,,,,,,,,,,,,,,,,,,241.8379424000159,None,241.8379424000159,None,241.34757099999115,None,f,1.4934964999556541,241.8379424000159,None,,,,,,,c,001,2021_Jul_01_0959,toilet,2021.1.3,99.87346031564225,
180,0,4,-4,1.06,,,,,0,0,0,0,0,30,30,54,,,,,,,,,,,,,,,,,,,,,,,244.3396025999682,None,244.3396025999682,None,243.8392385999905,None,j,1.4880680999485776,244.3396025999682,None,,,,,,,c,001,2021_Jul_01_0959,toilet,2021.1.3,99.87346031564225,
180,180,-4,4,0.85,,,,,0,0,0,0,0,31,31,28,,,,,,,,,,,,,,,,,,,,,,,246.85130330000538,None,246.85130330000538,None,246.35096700000577,None,f,0.6561278000008315,246.85130330000538,None,,,,,,,c,001,2021_Jul_01_0959,toilet,2021.1.3,99.87346031564225,
0,0,-4,4,1.06,,,,,0,0,0,0,0,32,32,5,,,,,,,,,,,,,,,,,,,,,,,248.5224361999426,None,248.5224361999426,None,248.02217959996779,None,j,0.6968228999758139,248.5224361999426,None,,,,,,,c,001,2021_Jul_01_0959,toilet,2021.1.3,99.87346031564225,
180,180,4,-4,1.0,,,,,0,0,0,0,0,33,33,38,,,,,,,,,,,,,,,,,,,,,,,250.22362940001767,None,250.22362940001767,None,249.7233403000282,None,j,1.251681699999608,250.22362940001767,None,,,,,,,c,001,2021_Jul_01_0959,toilet,2021.1.3,99.87346031564225,
180,180,-4,4,0.94,,,,,0,0,0,0,0,34,34,29,,,,,,,,,,,,,,,,,,,,,,,252.47511999995913,None,252.47511999995913,None,251.97477279999293,None,f,0.5203127999557182,252.47511999995913,None,,,,,,,c,001,2021_Jul_01_0959,toilet,2021.1.3,99.87346031564225,
0,0,-4,4,1.0,,,,,0,0,0,0,0,35,35,3,,,,,,,,,,,,,,,,,,,,,,,254.00614730000962,None,254.00614730000962,None,253.5058118000161,None,j,2.1891600000672042,254.00614730000962,None,,,,,,,c,001,2021_Jul_01_0959,toilet,2021.1.3,99.87346031564225,
180,0,4,-4,0.94,,,,,0,0,0,0,0,36,36,50,,,,,,,,,,,,,,,,,,,,,,,257.20833789999597,None,257.20833789999597,None,256.70807399996556,None,j,0.6988806000445038,257.20833789999597,None,,,,,,,c,001,2021_Jul_01_0959,toilet,2021.1.3,99.87346031564225,
0,0,4,-4,0.85,,,,,0,0,0,0,0,37,37,7,,,,,,,,,,,,,,,,,,,,,,,258.909467499936,None,258.909467499936,None,258.4091313999379,None,j,0.46978739998303354,258.909467499936,None,,,,,,,c,001,2021_Jul_01_0959,toilet,2021.1.3,99.87346031564225,
0,0,4,-4,0.97,,,,,0,0,0,0,0,38,38,9,,,,,,,,,,,,,,,,,,,,,,,260.3804643000476,None,260.3804643000476,None,259.8801288999384,None,j,0.6950077000074089,260.3804643000476,None,,,,,,,c,001,2021_Jul_01_0959,toilet,2021.1.3,99.87346031564225,
0,0,-4,4,0.85,,,,,0,0,0,0,0,39,39,0,,,,,,,,,,,,,,,,,,,,,,,262.1016336999601,None,262.1016336999601,None,261.60129280004185,None,f,0.621588799986057,262.1016336999601,None,,,,,,,c,001,2021_Jul_01_0959,toilet,2021.1.3,99.87346031564225,
0,180,4,-4,1.03,,,,,0,0,0,0,0,40,40,25,,,,,,,,,,,,,,,,,,,,,,,263.72281700000167,None,263.72281700000167,None,263.22239120001905,None,j,1.2244592999340966,263.72281700000167,None,,,,,,,c,001,2021_Jul_01_0959,toilet,2021.1.3,99.87346031564225,
180,0,4,-4,1.03,,,,,0,0,0,0,0,41,41,53,,,,,,,,,,,,,,,,,,,,,,,265.9642545999959,None,265.9642545999959,None,265.46393710002303,None,f,1.0630502999993041,265.9642545999959,None,,,,,,,c,001,2021_Jul_01_0959,toilet,2021.1.3,99.87346031564225,
0,180,4,-4,1.06,,,,,0,0,0,0,0,42,42,26,,,,,,,,,,,,,,,,,,,,,,,268.0356538000051,None,268.0356538000051,None,267.53531439998187,None,f,1.503635200089775,268.0356538000051,None,,,,,,,c,001,2021_Jul_01_0959,toilet,2021.1.3,99.87346031564225,
0,0,-4,4,0.94,,,,,0,0,0,0,0,43,43,1,,,,,,,,,,,,,,,,,,,,,,,270.54742990003433,None,270.54742990003433,None,270.0470961999381,None,f,1.1520151000004262,270.54742990003433,None,,,,,,,c,001,2021_Jul_01_0959,toilet,2021.1.3,99.87346031564225,
0,0,4,-4,0.94,,,,,0,0,0,0,0,44,44,8,,,,,,,,,,,,,,,,,,,,,,,272.70882099994924,None,272.70882099994924,None,272.20848160004243,None,j,0.6544817000394687,272.70882099994924,None,,,,,,,c,001,2021_Jul_01_0959,toilet,2021.1.3,99.87346031564225,
180,0,-4,4,1.0,,,,,0,0,0,0,0,45,45,45,,,,,,,,,,,,,,,,,,,,,,,274.3699478999479,None,274.3699478999479,None,273.86959839996416,None,j,2.8812905999366194,274.3699478999479,None,,,,,,,c,001,2021_Jul_01_0959,toilet,2021.1.3,99.87346031564225,
180,180,4,-4,1.03,,,,,0,0,0,0,0,46,46,39,,,,,,,,,,,,,,,,,,,,,,,278.252661800012,None,278.252661800012,None,277.7522339000134,None,f,1.9905853999080136,278.252661800012,None,,,,,,,c,001,2021_Jul_01_0959,toilet,2021.1.3,99.87346031564225,
180,180,4,-4,1.15,,,,,0,0,0,0,0,47,47,41,,,,,,,,,,,,,,,,,,,,,,,281.2446010999847,None,281.2446010999847,None,280.74425969994627,None,f,0.502663999912329,281.2446010999847,None,,,,,,,c,001,2021_Jul_01_0959,toilet,2021.1.3,99.87346031564225,
180,180,-4,4,1.0,,,,,0,0,0,0,0,48,48,31,,,,,,,,,,,,,,,,,,,,,,,282.755618999945,None,282.755618999945,None,282.25528849998955,None,j,1.1356840999796987,282.755618999945,None,,,,,,,c,001,2021_Jul_01_0959,toilet,2021.1.3,99.87346031564225,
180,180,4,-4,0.97,,,,,0,0,0,0,0,49,49,37,,,,,,,,,,,,,,,,,,,,,,,284.9070805000374,None,284.9070805000374,None,284.40673759998754,None,j,1.224332100013271,284.9070805000374,None,,,,,,,c,001,2021_Jul_01_0959,toilet,2021.1.3,99.87346031564225,
180,0,-4,4,1.03,,,,,0,0,0,0,0,50,50,46,,,,,,,,,,,,,,,,,,,,,,,287.1386103000259,None,287.1386103000259,None,286.64827460004017,None,j,0.6566252000629902,287.1386103000259,None,,,,,,,c,001,2021_Jul_01_0959,toilet,2021.1.3,99.87346031564225,
0,180,-4,4,1.03,,,,,0,0,0,0,0,51,51,18,,,,,,,,,,,,,,,,,,,,,,,288.7997167999856,None,288.7997167999856,None,288.29937849997077,None,j,0.6755357999354601,288.7997167999856,None,,,,,,,c,001,2021_Jul_01_0959,toilet,2021.1.3,99.87346031564225,
180,0,-4,4,0.94,,,,,0,0,0,0,0,52,52,43,,,,,,,,,,,,,,,,,,,,,,,290.48085930000525,None,290.48085930000525,None,289.9805157999508,None,f,1.122458100086078,290.48085930000525,None,,,,,,,c,001,2021_Jul_01_0959,toilet,2021.1.3,99.87346031564225,
180,0,-4,4,0.85,,,,,0,0,0,0,0,53,53,42,,,,,,,,,,,,,,,,,,,,,,,292.60230829997454,None,292.60230829997454,None,292.10195219994057,None,f,0.8089158999500796,292.60230829997454,None,,,,,,,c,001,2021_Jul_01_0959,toilet,2021.1.3,99.87346031564225,
180,180,4,-4,1.06,,,,,0,0,0,0,0,54,54,40,,,,,,,,,,,,,,,,,,,,,,,294.41356300003827,None,294.41356300003827,None,293.9132476999657,None,f,1.2696688999421895,294.41356300003827,None,,,,,,,c,001,2021_Jul_01_0959,toilet,2021.1.3,99.87346031564225,
180,0,-4,4,1.06,,,,,0,0,0,0,0,55,55,47,,,,,,,,,,,,,,,,,,,,,,,296.68505830003414,None,296.68505830003414,None,296.1847256999463,None,j,0.7263819000218064,296.68505830003414,None,,,,,,,c,001,2021_Jul_01_0959,toilet,2021.1.3,99.87346031564225,
180,180,-4,4,1.03,,,,,0,0,0,0,1,0,56,32,,,,,,,,,,,,,,,,,,,,,,,298.4362445999868,None,298.4362445999868,None,297.9359061999712,None,j,3.8550494000082836,298.4362445999868,None,,,,,,,c,001,2021_Jul_01_0959,toilet,2021.1.3,99.87346031564225,
0,180,-4,4,1.0,,,,,0,0,0,0,1,1,57,17,,,,,,,,,,,,,,,,,,,,,,,303.2995402000379,None,303.2995402000379,None,302.7992041000398,None,j,1.5037742999847978,303.2995402000379,None,,,,,,,c,001,2021_Jul_01_0959,toilet,2021.1.3,99.87346031564225,
180,180,4,-4,0.97,,,,,0,0,0,0,1,2,58,37,,,,,,,,,,,,,,,,,,,,,,,305.8312552999705,None,305.8312552999705,None,305.3308739999775,None,j,0.796115499921143,305.8312552999705,None,,,,,,,c,001,2021_Jul_01_0959,toilet,2021.1.3,99.87346031564225,
180,180,-4,4,1.15,,,,,0,0,0,0,1,3,59,34,,,,,,,,,,,,,,,,,,,,,,,307.6425607999554,None,307.6425607999554,None,307.14214100001846,None,j,0.5686289999866858,307.6425607999554,None,,,,,,,c,001,2021_Jul_01_0959,toilet,2021.1.3,99.87346031564225,
0,0,-4,4,1.15,,,,,0,0,0,0,1,4,60,6,,,,,,,,,,,,,,,,,,,,,,,309.21363150002435,None,309.21363150002435,None,308.713293400011,None,j,0.6936790999025106,309.21363150002435,None,,,,,,,c,001,2021_Jul_01_0959,toilet,2021.1.3,99.87346031564225,
180,0,-4,4,1.15,,,,,0,0,0,0,1,5,61,48,,,,,,,,,,,,,,,,,,,,,,,310.9146968999412,None,310.9146968999412,None,310.414352199994,None,j,0.4965271999826655,310.9146968999412,None,,,,,,,c,001,2021_Jul_01_0959,toilet,2021.1.3,99.87346031564225,
180,180,-4,4,0.94,,,,,0,0,0,0,1,6,62,29,,,,,,,,,,,,,,,,,,,,,,,312.4157140000025,None,312.4157140000025,None,311.9153726999648,None,f,0.6915706000290811,312.4157140000025,None,,,,,,,c,001,2021_Jul_01_0959,toilet,2021.1.3,99.87346031564225,
0,180,-4,4,1.15,,,,,0,0,0,0,1,7,63,20,,,,,,,,,,,,,,,,,,,,,,,314.1168616999639,None,314.1168616999639,None,313.61652659997344,None,j,0.47844410000834614,314.1168616999639,None,,,,,,,c,001,2021_Jul_01_0959,toilet,2021.1.3,99.87346031564225,
0,0,4,-4,1.06,,,,,0,0,0,0,1,8,64,12,,,,,,,,,,,,,,,,,,,,,,,315.60791200003587,None,315.60791200003587,None,315.107573300018,None,f,0.44336769997607917,315.60791200003587,None,,,,,,,c,001,2021_Jul_01_0959,toilet,2021.1.3,99.87346031564225,
180,180,4,-4,1.15,,,,,0,0,0,0,1,9,65,41,,,,,,,,,,,,,,,,,,,,,,,317.058857099968,None,317.058857099968,None,316.558617600007,None,f,0.496365400031209,317.058857099968,None,,,,,,,c,001,2021_Jul_01_0959,toilet,2021.1.3,99.87346031564225,
180,0,-4,4,0.94,,,,,0,0,0,0,1,10,66,43,,,,,,,,,,,,,,,,,,,,,,,318.55987350002397,None,318.55987350002397,None,318.05953299999237,None,f,0.9476962999906391,318.55987350002397,None,,,,,,,c,001,2021_Jul_01_0959,toilet,2021.1.3,99.87346031564225,
0,180,4,-4,1.0,,,,,0,0,0,0,1,11,67,24,,,,,,,,,,,,,,,,,,,,,,,320.53120670001954,None,320.53120670001954,None,320.0308723000344,None,j,3.1360458000563085,320.53120670001954,None,,,,,,,c,001,2021_Jul_01_0959,toilet,2021.1.3,99.87346031564225,
0,0,-4,4,0.94,,,,,0,0,0,0,1,12,68,1,,,,,,,,,,,,,,,,,,,,,,,324.68403110001236,None,324.68403110001236,None,324.18378850002773,None,f,0.6313912000041455,324.68403110001236,None,,,,,,,c,001,2021_Jul_01_0959,toilet,2021.1.3,99.87346031564225,
0,0,-4,4,1.0,,,,,0,0,0,0,1,13,69,3,,,,,,,,,,,,,,,,,,,,,,,326.3151267999783,None,326.3151267999783,None,325.814788699965,None,f,1.2082257999572903,326.3151267999783,None,,,,,,,c,001,2021_Jul_01_0959,toilet,2021.1.3,99.87346031564225,
0,180,-4,4,1.06,,,,,0,0,0,0,1,14,70,19,,,,,,,,,,,,,,,,,,,,,,,328.53663400001824,None,328.53663400001824,None,328.0362938999897,None,j,0.5067751000169665,328.53663400001824,None,,,,,,,c,001,2021_Jul_01_0959,toilet,2021.1.3,99.87346031564225,
0,180,-4,4,0.94,,,,,0,0,0,0,1,15,71,15,,,,,,,,,,,,,,,,,,,,,,,330.05766219994985,None,330.05766219994985,None,329.55740920000244,None,f,1.5134919999400154,330.05766219994985,None,,,,,,,c,001,2021_Jul_01_0959,toilet,2021.1.3,99.87346031564225,
180,0,4,-4,1.06,,,,,0,0,0,0,1,16,72,54,,,,,,,,,,,,,,,,,,,,,,,332.5793671000283,None,332.5793671000283,None,332.07902860001195,None,f,2.5120591999730095,332.5793671000283,None,,,,,,,c,001,2021_Jul_01_0959,toilet,2021.1.3,99.87346031564225,
180,180,4,-4,1.03,,,,,0,0,0,0,1,17,73,39,,,,,,,,,,,,,,,,,,,,,,,336.0917500000214,None,336.0917500000214,None,335.59141069999896,None,f,1.911569599993527,336.0917500000214,None,,,,,,,c,001,2021_Jul_01_0959,toilet,2021.1.3,99.87346031564225,
0,0,4,-4,0.94,,,,,0,0,0,0,1,18,74,8,,,,,,,,,,,,,,,,,,,,,,,339.0037219999358,None,339.0037219999358,None,338.5033868999453,None,j,0.5194460999919102,339.0037219999358,None,,,,,,,c,001,2021_Jul_01_0959,toilet,2021.1.3,99.87346031564225,
180,180,4,-4,1.0,,,,,0,0,0,0,1,19,75,38,,,,,,,,,,,,,,,,,,,,,,,340.5247562000295,None,340.5247562000295,None,340.02441529999487,None,f,10.518573999986984,340.5247562000295,None,,,,,,,c,001,2021_Jul_01_0959,toilet,2021.1.3,99.87346031564225,
180,180,-4,4,0.97,,,,,0,0,0,0,1,20,76,30,,,,,,,,,,,,,,,,,,,,,,,352.0526316999458,None,352.0526316999458,None,351.5522186999442,None,f,0.6386275000404567,352.0526316999458,None,,,,,,,c,001,2021_Jul_01_0959,toilet,2021.1.3,99.87346031564225,
180,0,-4,4,1.0,,,,,0,0,0,0,1,21,77,45,,,,,,,,,,,,,,,,,,,,,,,353.70368120004423,None,353.70368120004423,None,353.20335820002947,None,j,5.4675399999832734,353.70368120004423,None,,,,,,,c,001,2021_Jul_01_0959,toilet,2021.1.3,99.87346031564225,
0,0,-4,4,1.06,,,,,0,0,0,0,1,22,78,5,,,,,,,,,,,,,,,,,,,,,,,360.17806179996114,None,360.17806179996114,None,359.67782189999707,None,j,0.769113100017421,360.17806179996114,None,,,,,,,c,001,2021_Jul_01_0959,toilet,2021.1.3,99.87346031564225,
0,0,4,-4,0.97,,,,,0,0,0,0,1,23,79,9,,,,,,,,,,,,,,,,,,,,,,,361.94926000002306,None,361.94926000002306,None,361.4489312999649,None,j,1.174131500069052,361.94926000002306,None,,,,,,,c,001,2021_Jul_01_0959,toilet,2021.1.3,99.87346031564225,
180,0,4,-4,1.03,,,,,0,0,0,0,1,24,80,53,,,,,,,,,,,,,,,,,,,,,,,364.1307464999845,None,364.1307464999845,None,363.63039770000614,None,f,1.9527700999751687,364.1307464999845,None,,,,,,,c,001,2021_Jul_01_0959,toilet,2021.1.3,99.87346031564225,
180,0,-4,4,1.06,,,,,0,0,0,0,1,25,81,47,,,,,,,,,,,,,,,,,,,,,,,367.1028387999395,None,367.1028387999395,None,366.6024118999485,None,j,0.5964454000350088,367.1028387999395,None,,,,,,,c,001,2021_Jul_01_0959,toilet,2021.1.3,99.87346031564225,
0,180,-4,4,1.03,,,,,0,0,0,0,1,26,82,18,,,,,,,,,,,,,,,,,,,,,,,368.7038403999759,None,368.7038403999759,None,368.2035000999458,None,j,1.1073269000044093,368.7038403999759,None,,,,,,,c,001,2021_Jul_01_0959,toilet,2021.1.3,99.87346031564225,
180,0,4,-4,0.85,,,,,0,0,0,0,1,27,83,49,,,,,,,,,,,,,,,,,,,,,,,370.8152788999723,None,370.8152788999723,None,370.31492489995435,None,j,0.5160340999718755,370.8152788999723,None,,,,,,,c,001,2021_Jul_01_0959,toilet,2021.1.3,99.87346031564225,
180,180,-4,4,1.06,,,,,0,0,0,0,1,28,84,33,,,,,,,,,,,,,,,,,,,,,,,372.34630970004946,None,372.34630970004946,None,371.8459715000354,None,j,0.8250194999855012,372.34630970004946,None,,,,,,,c,001,2021_Jul_01_0959,toilet,2021.1.3,99.87346031564225,
180,180,-4,4,1.0,,,,,0,0,0,0,1,29,85,31,,,,,,,,,,,,,,,,,,,,,,,374.1876447999384,None,374.1876447999384,None,373.687246000045,None,j,1.127580500091426,374.1876447999384,None,,,,,,,c,001,2021_Jul_01_0959,toilet,2021.1.3,99.87346031564225,
180,0,-4,4,0.97,,,,,0,0,0,0,1,30,86,44,,,,,,,,,,,,,,,,,,,,,,,376.3189973999979,None,376.3189973999979,None,375.82866090000607,None,f,1.492221099906601,376.3189973999979,None,,,,,,,c,001,2021_Jul_01_0959,toilet,2021.1.3,99.87346031564225,
180,0,-4,4,0.85,,,,,0,0,0,0,1,31,87,42,,,,,,,,,,,,,,,,,,,,,,,378.8106843000278,None,378.8106843000278,None,378.31034259998705,None,f,0.4246583000058308,378.8106843000278,None,,,,,,,c,001,2021_Jul_01_0959,toilet,2021.1.3,99.87346031564225,
180,0,4,-4,0.97,,,,,0,0,0,0,1,32,88,51,,,,,,,,,,,,,,,,,,,,,,,380.25165909994394,None,380.25165909994394,None,379.75131680001505,None,j,0.5194725999608636,380.25165909994394,None,,,,,,,c,001,2021_Jul_01_0959,toilet,2021.1.3,99.87346031564225,
0,180,4,-4,1.06,,,,,0,0,0,0,1,33,89,26,,,,,,,,,,,,,,,,,,,,,,,381.7727919999743,None,381.7727919999743,None,381.27235119999386,None,f,0.4223832000279799,381.7727919999743,None,,,,,,,c,001,2021_Jul_01_0959,toilet,2021.1.3,99.87346031564225,
180,180,4,-4,1.06,,,,,0,0,0,0,1,34,90,40,,,,,,,,,,,,,,,,,,,,,,,383.2136674999492,None,383.2136674999492,None,382.71336009993684,None,f,0.6455228000413626,383.2136674999492,None,,,,,,,c,001,2021_Jul_01_0959,toilet,2021.1.3,99.87346031564225,
0,0,4,-4,1.15,,,,,0,0,0,0,1,35,91,13,,,,,,,,,,,,,,,,,,,,,,,384.8647833999712,None,384.8647833999712,None,384.3644240000285,None,f,0.5463887000223622,384.8647833999712,None,,,,,,,c,001,2021_Jul_01_0959,toilet,2021.1.3,99.87346031564225,
0,180,4,-4,0.85,,,,,0,0,0,0,1,36,92,21,,,,,,,,,,,,,,,,,,,,,,,386.41583489999175,None,386.41583489999175,None,385.91549829998985,None,j,1.027699499973096,386.41583489999175,None,,,,,,,c,001,2021_Jul_01_0959,toilet,2021.1.3,99.87346031564225,
180,0,4,-4,1.0,,,,,0,0,0,0,1,37,93,52,,,,,,,,,,,,,,,,,,,,,,,388.4572208999889,None,388.4572208999889,None,387.9568803999573,None,j,3.4021104999119416,388.4572208999889,None,,,,,,,c,001,2021_Jul_01_0959,toilet,2021.1.3,99.87346031564225,
180,0,-4,4,1.03,,,,,0,0,0,0,1,38,94,46,,,,,,,,,,,,,,,,,,,,,,,392.8601950999582,None,392.8601950999582,None,392.35985949996393,None,j,1.3830716999946162,392.8601950999582,None,,,,,,,c,001,2021_Jul_01_0959,toilet,2021.1.3,99.87346031564225,
0,0,-4,4,0.85,,,,,0,0,0,0,1,39,95,0,,,,,,,,,,,,,,,,,,,,,,,395.2718363000313,None,395.2718363000313,None,394.77149299997836,None,f,0.5395083000184968,395.2718363000313,None,,,,,,,c,001,2021_Jul_01_0959,toilet,2021.1.3,99.87346031564225,
180,180,4,-4,0.94,,,,,0,0,0,0,1,40,96,36,,,,,,,,,,,,,,,,,,,,,,,396.8229195999447,None,396.8229195999447,None,396.32254229998216,None,j,0.5083339000120759,396.8229195999447,None,,,,,,,c,001,2021_Jul_01_0959,toilet,2021.1.3,99.87346031564225,
0,0,4,-4,1.0,,,,,0,0,0,0,1,41,97,10,,,,,,,,,,,,,,,,,,,,,,,398.33390690002125,None,398.33390690002125,None,397.8335657999851,None,j,0.5172949000261724,398.33390690002125,None,,,,,,,c,001,2021_Jul_01_0959,toilet,2021.1.3,99.87346031564225,
0,180,4,-4,0.94,,,,,0,0,0,0,1,42,98,22,,,,,,,,,,,,,,,,,,,,,,,399.8549401999917,None,399.8549401999917,None,399.3545951000415,None,j,0.9963401999557391,399.8549401999917,None,,,,,,,c,001,2021_Jul_01_0959,toilet,2021.1.3,99.87346031564225,
0,180,-4,4,0.97,,,,,0,0,0,0,1,43,99,16,,,,,,,,,,,,,,,,,,,,,,,401.86631650000345,None,401.86631650000345,None,401.36599209997803,None,f,1.6569680999964476,401.86631650000345,None,,,,,,,c,001,2021_Jul_01_0959,toilet,2021.1.3,99.87346031564225,
0,180,4,-4,1.03,,,,,0,0,0,0,1,44,100,25,,,,,,,,,,,,,,,,,,,,,,,404.52813809993677,None,404.52813809993677,None,404.0378524999833,None,f,1.9390120999887586,404.52813809993677,None,,,,,,,c,001,2021_Jul_01_0959,toilet,2021.1.3,99.87346031564225,
0,0,4,-4,1.03,,,,,0,0,0,0,1,45,101,11,,,,,,,,,,,,,,,,,,,,,,,407.4700891999528,None,407.4700891999528,None,406.96975479996763,None,f,0.8051734999753535,407.4700891999528,None,,,,,,,c,001,2021_Jul_01_0959,toilet,2021.1.3,99.87346031564225,
180,0,4,-4,1.15,,,,,0,0,0,0,1,46,102,55,,,,,,,,,,,,,,,,,,,,,,,409.3013328999514,None,409.3013328999514,None,408.8009951999411,None,f,0.6218927999725565,409.3013328999514,None,,,,,,,c,001,2021_Jul_01_0959,toilet,2021.1.3,99.87346031564225,
0,180,4,-4,0.97,,,,,0,0,0,0,1,47,103,23,,,,,,,,,,,,,,,,,,,,,,,410.94252799998503,None,410.94252799998503,None,410.4421102999477,None,j,5.556775199947879,410.94252799998503,None,,,,,,,c,001,2021_Jul_01_0959,toilet,2021.1.3,99.87346031564225,
0,0,-4,4,0.97,,,,,0,0,0,0,1,48,104,2,,,,,,,,,,,,,,,,,,,,,,,417.51689790003,None,417.51689790003,None,417.0165600000182,None,f,0.582296899985522,417.51689790003,None,,,,,,,c,001,2021_Jul_01_0959,toilet,2021.1.3,99.87346031564225,
0,180,-4,4,0.85,,,,,0,0,0,0,1,49,105,14,,,,,,,,,,,,,,,,,,,,,,,419.11800030001905,None,419.11800030001905,None,418.61768000002485,None,f,0.5651683000614867,419.11800030001905,None,,,,,,,c,001,2021_Jul_01_0959,toilet,2021.1.3,99.87346031564225,
0,0,4,-4,0.85,,,,,0,0,0,0,1,50,106,7,,,,,,,,,,,,,,,,,,,,,,,420.6990536999656,None,420.6990536999656,None,420.19871409994084,None,j,0.48806559992954135,420.6990536999656,None,,,,,,,c,001,2021_Jul_01_0959,toilet,2021.1.3,99.87346031564225,
0,0,-4,4,1.03,,,,,0,0,0,0,1,51,107,4,,,,,,,,,,,,,,,,,,,,,,,422.19007320003584,None,422.19007320003584,None,421.68973350001033,None,j,0.6450337000424042,422.19007320003584,None,,,,,,,c,001,2021_Jul_01_0959,toilet,2021.1.3,99.87346031564225,
180,0,4,-4,0.94,,,,,0,0,0,0,1,52,108,50,,,,,,,,,,,,,,,,,,,,,,,423.8411784999771,None,423.8411784999771,None,423.34084800002165,None,j,0.5620362999616191,423.8411784999771,None,,,,,,,c,001,2021_Jul_01_0959,toilet,2021.1.3,99.87346031564225,
0,180,4,-4,1.15,,,,,0,0,0,0,1,53,109,27,,,,,,,,,,,,,,,,,,,,,,,425.42232919996604,None,425.42232919996604,None,424.9219120000489,None,f,0.4687852000351995,425.42232919996604,None,,,,,,,c,001,2021_Jul_01_0959,toilet,2021.1.3,99.87346031564225,
180,180,-4,4,0.85,,,,,0,0,0,0,1,54,110,28,,,,,,,,,,,,,,,,,,,,,,,426.8932273000246,None,426.8932273000246,None,426.39288639998995,None,f,0.6458178000757471,426.8932273000246,None,,,,,,,c,001,2021_Jul_01_0959,toilet,2021.1.3,99.87346031564225,
180,180,4,-4,0.85,,,,,0,0,0,0,1,55,111,35,,,,,,,,,,,,,,,,,,,,,,,428.54436499997973,None,428.54436499997973,None,428.0440271999687,None,j,0.4187400999944657,428.54436499997973,None,,,,,,,c,001,2021_Jul_01_0959,toilet,2021.1.3,99.87346031564225,
,,,,,,,,,0,0,0,0,,,,,,,,,,,,,,,,,,,,,,,,,,,,,,,,,,,,,428.97465760004707,None,space,3.2366014000726864,428.97465760004707,None,c,001,2021_Jul_01_0959,toilet,2021.1.3,99.87346031564225,
0,180,4,-4,0.97,,,,,1,0,1,0,0,0,0,23,,,,,,,,,,,,,,,,,432.2369221999543,None,space,6.9023396000266075,432.2369221999543,None,440.1622381999623,None,440.1622381999623,None,439.66189580003265,None,j,4.0648566000163555,440.1622381999623,None,,,,,,,c,001,2021_Jul_01_0959,toilet,2021.1.3,99.87346031564225,
180,180,4,-4,1.0,,,,,1,0,1,0,0,1,1,38,,,,,,,,,,,,,,,,,,,,,,,445.2356711999746,None,445.2356711999746,None,444.73533189995214,None,f,1.2154779999982566,445.2356711999746,None,,,,,,,c,001,2021_Jul_01_0959,toilet,2021.1.3,99.87346031564225,
0,0,-4,4,0.97,,,,,1,0,1,0,0,2,2,2,,,,,,,,,,,,,,,,,,,,,,,447.46725520002656,None,447.46725520002656,None,446.9668404000113,None,f,1.5597901999717578,447.46725520002656,None,,,,,,,c,001,2021_Jul_01_0959,toilet,2021.1.3,99.87346031564225,
0,0,4,-4,0.94,,,,,1,0,1,0,0,3,3,8,,,,,,,,,,,,,,,,,,,,,,,450.0289198999526,None,450.0289198999526,None,449.52858189994004,None,j,0.7261732999468222,450.0289198999526,None,,,,,,,c,001,2021_Jul_01_0959,toilet,2021.1.3,99.87346031564225,
0,180,4,-4,0.85,,,,,1,0,1,0,0,4,4,21,,,,,,,,,,,,,,,,,,,,,,,451.76009510003496,None,451.76009510003496,None,451.2597573000239,None,j,0.451288599986583,451.76009510003496,None,,,,,,,c,001,2021_Jul_01_0959,toilet,2021.1.3,99.87346031564225,
0,0,4,-4,0.85,,,,,1,0,1,0,0,5,5,7,,,,,,,,,,,,,,,,,,,,,,,453.2210805999348,None,453.2210805999348,None,452.72073920001276,None,j,0.3981053000316024,453.2210805999348,None,,,,,,,c,001,2021_Jul_01_0959,toilet,2021.1.3,99.87346031564225,
0,180,-4,4,0.97,,,,,1,0,1,0,0,6,6,16,,,,,,,,,,,,,,,,,,,,,,,454.63210729998536,None,454.63210729998536,None,454.13170419994276,None,j,7.051268300041556,454.63210729998536,None,,,,,,,c,001,2021_Jul_01_0959,toilet,2021.1.3,99.87346031564225,
180,180,-4,4,1.15,,,,,1,0,1,0,0,7,7,34,,,,,,,,,,,,,,,,,,,,,,,462.6975058999378,None,462.6975058999378,None,462.19724819995463,None,j,0.5217210999689996,462.6975058999378,None,,,,,,,c,001,2021_Jul_01_0959,toilet,2021.1.3,99.87346031564225,
0,180,-4,4,0.85,,,,,1,0,1,0,0,8,8,14,,,,,,,,,,,,,,,,,,,,,,,464.2385411999421,None,464.2385411999421,None,463.7382979999529,None,f,0.3884709000121802,464.2385411999421,None,,,,,,,c,001,2021_Jul_01_0959,toilet,2021.1.3,99.87346031564225,
0,0,-4,4,0.85,,,,,1,0,1,0,0,9,9,0,,,,,,,,,,,,,,,,,,,,,,,465.62948070000857,None,465.62948070000857,None,465.1291450000135,None,f,0.4055562000721693,465.62948070000857,None,,,,,,,c,001,2021_Jul_01_0959,toilet,2021.1.3,99.87346031564225,
180,180,-4,4,0.97,,,,,1,0,1,0,0,10,10,30,,,,,,,,,,,,,,,,,,,,,,,467.04043930000626,None,467.04043930000626,None,466.5400978999678,None,f,0.5947735001100227,467.04043930000626,None,,,,,,,c,001,2021_Jul_01_0959,toilet,2021.1.3,99.87346031564225,
0,180,-4,4,1.03,,,,,1,0,1,0,0,11,11,18,,,,,,,,,,,,,,,,,,,,,,,468.6615369999781,None,468.6615369999781,None,468.1612038000021,None,j,0.6056681999471039,468.6615369999781,None,,,,,,,c,001,2021_Jul_01_0959,toilet,2021.1.3,99.87346031564225,
0,0,-4,4,1.0,,,,,1,0,1,0,0,12,12,3,,,,,,,,,,,,,,,,,,,,,,,470.2827272999566,None,470.2827272999566,None,469.7823858000338,None,f,0.5363439000211656,470.2827272999566,None,,,,,,,c,001,2021_Jul_01_0959,toilet,2021.1.3,99.87346031564225,
0,180,4,-4,1.06,,,,,1,0,1,0,0,13,13,26,,,,,,,,,,,,,,,,,,,,,,,471.83368849998806,None,471.83368849998806,None,471.33338039997034,None,f,0.37737519992515445,471.83368849998806,None,,,,,,,c,001,2021_Jul_01_0959,toilet,2021.1.3,99.87346031564225,
180,0,-4,4,1.0,,,,,1,0,1,0,0,14,14,45,,,,,,,,,,,,,,,,,,,,,,,473.2146204999881,None,473.2146204999881,None,472.71428549999837,None,j,1.716576399980113,473.2146204999881,None,,,,,,,c,001,2021_Jul_01_0959,toilet,2021.1.3,99.87346031564225,
0,0,4,-4,1.03,,,,,1,0,1,0,0,15,15,11,,,,,,,,,,,,,,,,,,,,,,,475.95648099994287,None,475.95648099994287,None,475.4561520999996,None,f,0.430837000021711,475.95648099994287,None,,,,,,,c,001,2021_Jul_01_0959,toilet,2021.1.3,99.87346031564225,
180,0,4,-4,0.85,,,,,1,0,1,0,0,16,16,49,,,,,,,,,,,,,,,,,,,,,,,477.3875352999894,None,477.3875352999894,None,476.88710669998545,None,j,0.4395382000366226,477.3875352999894,None,,,,,,,c,001,2021_Jul_01_0959,toilet,2021.1.3,99.87346031564225,
180,0,-4,4,0.97,,,,,1,0,1,0,0,17,17,44,,,,,,,,,,,,,,,,,,,,,,,478.8284382999409,None,478.8284382999409,None,478.3381110000191,None,f,0.6785846999846399,478.8284382999409,None,,,,,,,c,001,2021_Jul_01_0959,toilet,2021.1.3,99.87346031564225,
180,180,4,-4,0.97,,,,,1,0,1,0,0,18,18,37,,,,,,,,,,,,,,,,,,,,,,,480.50955980003346,None,480.50955980003346,None,480.0092221000232,None,j,0.5174466000171378,480.50955980003346,None,,,,,,,c,001,2021_Jul_01_0959,toilet,2021.1.3,99.87346031564225,
180,180,4,-4,0.85,,,,,1,0,1,0,0,19,19,35,,,,,,,,,,,,,,,,,,,,,,,482.0305941000115,None,482.0305941000115,None,481.5302541999845,None,j,0.4685646001016721,482.0305941000115,None,,,,,,,c,001,2021_Jul_01_0959,toilet,2021.1.3,99.87346031564225,
0,180,-4,4,0.94,,,,,1,0,1,0,0,20,20,15,,,,,,,,,,,,,,,,,,,,,,,483.51159130001906,None,483.51159130001906,None,483.01125470001716,None,f,1.0995504000457004,483.51159130001906,None,,,,,,,c,001,2021_Jul_01_0959,toilet,2021.1.3,99.87346031564225,
180,180,4,-4,1.15,,,,,1,0,1,0,0,21,21,41,,,,,,,,,,,,,,,,,,,,,,,485.62310079997405,None,485.62310079997405,None,485.12268319993746,None,f,0.5080885000061244,485.62310079997405,None,,,,,,,c,001,2021_Jul_01_0959,toilet,2021.1.3,99.87346031564225,
0,180,-4,4,1.0,,,,,1,0,1,0,0,22,22,17,,,,,,,,,,,,,,,,,,,,,,,487.13404569996055,None,487.13404569996055,None,486.63370580004994,None,j,0.5650164999533445,487.13404569996055,None,,,,,,,c,001,2021_Jul_01_0959,toilet,2021.1.3,99.87346031564225,
180,0,-4,4,1.06,,,,,1,0,1,0,0,23,23,47,,,,,,,,,,,,,,,,,,,,,,,488.70510949997697,None,488.70510949997697,None,488.2047696999507,None,j,0.5141092999838293,488.70510949997697,None,,,,,,,c,001,2021_Jul_01_0959,toilet,2021.1.3,99.87346031564225,
180,0,4,-4,0.94,,,,,1,0,1,0,0,24,24,50,,,,,,,,,,,,,,,,,,,,,,,490.2461544999387,None,490.2461544999387,None,489.7458149000304,None,j,0.5090195999946445,490.2461544999387,None,,,,,,,c,001,2021_Jul_01_0959,toilet,2021.1.3,99.87346031564225,
180,0,-4,4,1.03,,,,,1,0,1,0,0,25,25,46,,,,,,,,,,,,,,,,,,,,,,,491.7671867000172,None,491.7671867000172,None,491.2668424999574,None,j,12.124002300086431,491.7671867000172,None,,,,,,,c,001,2021_Jul_01_0959,toilet,2021.1.3,99.87346031564225,
0,0,-4,4,1.06,,,,,1,0,1,0,0,26,26,5,,,,,,,,,,,,,,,,,,,,,,,504.91608720005024,None,504.91608720005024,None,504.41574690002017,None,j,0.5750786999706179,504.91608720005024,None,,,,,,,c,001,2021_Jul_01_0959,toilet,2021.1.3,99.87346031564225,
180,180,-4,4,1.0,,,,,1,0,1,0,0,27,27,31,,,,,,,,,,,,,,,,,,,,,,,506.4972408999456,None,506.4972408999456,None,506.00683389999904,None,j,9.505795800010674,506.4972408999456,None,,,,,,,c,001,2021_Jul_01_0959,toilet,2021.1.3,99.87346031564225,
0,180,4,-4,0.94,,,,,1,0,1,0,0,28,28,22,,,,,,,,,,,,,,,,,,,,,,,517.0042741999496,None,517.0042741999496,None,516.5039394999621,None,j,3.670683400006965,517.0042741999496,None,,,,,,,c,001,2021_Jul_01_0959,toilet,2021.1.3,99.87346031564225,
180,0,-4,4,0.85,,,,,1,0,1,0,0,29,29,42,,,,,,,,,,,,,,,,,,,,,,,521.6775281999726,None,521.6775281999726,None,521.1771021999884,None,f,0.48548170004505664,521.6775281999726,None,,,,,,,c,001,2021_Jul_01_0959,toilet,2021.1.3,99.87346031564225,
180,180,-4,4,0.85,,,,,1,0,1,0,0,30,30,28,,,,,,,,,,,,,,,,,,,,,,,523.1784686000319,None,523.1784686000319,None,522.6781575999921,None,f,0.5045220999745652,523.1784686000319,None,,,,,,,c,001,2021_Jul_01_0959,toilet,2021.1.3,99.87346031564225,
180,0,4,-4,0.97,,,,,1,0,1,0,0,31,31,51,,,,,,,,,,,,,,,,,,,,,,,524.6894824999617,None,524.6894824999617,None,524.1891409000382,None,j,0.9615283999592066,524.6894824999617,None,,,,,,,c,001,2021_Jul_01_0959,toilet,2021.1.3,99.87346031564225,
0,0,4,-4,1.15,,,,,1,0,1,0,0,32,32,13,,,,,,,,,,,,,,,,,,,,,,,526.6508073000005,None,526.6508073000005,None,526.1504771000473,None,f,0.5203191998880357,526.6508073000005,None,,,,,,,c,001,2021_Jul_01_0959,toilet,2021.1.3,99.87346031564225,
0,180,-4,4,1.15,,,,,1,0,1,0,0,33,33,20,,,,,,,,,,,,,,,,,,,,,,,528.181845300016,None,528.181845300016,None,527.6815944999689,None,j,0.4453078000806272,528.181845300016,None,,,,,,,c,001,2021_Jul_01_0959,toilet,2021.1.3,99.87346031564225,
180,0,4,-4,1.0,,,,,1,0,1,0,0,34,34,52,,,,,,,,,,,,,,,,,,,,,,,529.6528428000165,None,529.6528428000165,None,529.152575999964,None,j,2.0301303000887856,529.6528428000165,None,,,,,,,c,001,2021_Jul_01_0959,toilet,2021.1.3,99.87346031564225,
0,0,4,-4,1.0,,,,,1,0,1,0,0,35,35,10,,,,,,,,,,,,,,,,,,,,,,,532.6848913000431,None,532.6848913000431,None,532.1845541000366,None,j,1.0622299000388011,532.6848913000431,None,,,,,,,c,001,2021_Jul_01_0959,toilet,2021.1.3,99.87346031564225,
180,180,-4,4,1.06,,,,,1,0,1,0,0,36,36,33,,,,,,,,,,,,,,,,,,,,,,,534.7663000000175,None,534.7663000000175,None,534.2659640000202,None,j,0.8048477000556886,534.7663000000175,None,,,,,,,c,001,2021_Jul_01_0959,toilet,2021.1.3,99.87346031564225,
0,0,-4,4,1.03,,,,,1,0,1,0,0,37,37,4,,,,,,,,,,,,,,,,,,,,,,,536.5976299999747,None,536.5976299999747,None,536.0972037999891,None,j,0.5253659000154585,536.5976299999747,None,,,,,,,c,001,2021_Jul_01_0959,toilet,2021.1.3,99.87346031564225,
180,180,-4,4,0.94,,,,,1,0,1,0,0,38,38,29,,,,,,,,,,,,,,,,,,,,,,,538.1285797000164,None,538.1285797000164,None,537.6282614000374,None,f,0.6104149000020698,538.1285797000164,None,,,,,,,c,001,2021_Jul_01_0959,toilet,2021.1.3,99.87346031564225,
180,0,-4,4,1.15,,,,,1,0,1,0,0,39,39,48,,,,,,,,,,,,,,,,,,,,,,,539.7396710000467,None,539.7396710000467,None,539.239332200028,None,j,0.45532389997970313,539.7396710000467,None,,,,,,,c,001,2021_Jul_01_0959,toilet,2021.1.3,99.87346031564225,
180,0,4,-4,1.06,,,,,1,0,1,0,0,40,40,54,,,,,,,,,,,,,,,,,,,,,,,541.2006636000006,None,541.2006636000006,None,540.7003257999895,None,f,0.7703725000610575,541.2006636000006,None,,,,,,,c,001,2021_Jul_01_0959,toilet,2021.1.3,99.87346031564225,
0,180,-4,4,1.06,,,,,1,0,1,0,0,41,41,19,,,,,,,,,,,,,,,,,,,,,,,542.9819532999536,None,542.9819532999536,None,542.4815260999603,None,j,0.9890915000578389,542.9819532999536,None,,,,,,,c,001,2021_Jul_01_0959,toilet,2021.1.3,99.87346031564225,
0,0,-4,4,0.94,,,,,1,0,1,0,0,42,42,1,,,,,,,,,,,,,,,,,,,,,,,544.9832301000133,None,544.9832301000133,None,544.4728843000485,None,f,0.619725099997595,544.9832301000133,None,,,,,,,c,001,2021_Jul_01_0959,toilet,2021.1.3,99.87346031564225,
180,0,-4,4,0.94,,,,,1,0,1,0,0,43,43,43,,,,,,,,,,,,,,,,,,,,,,,546.6043186000315,None,546.6043186000315,None,546.103981000022,None,f,1.2708681999938563,546.6043186000315,None,,,,,,,c,001,2021_Jul_01_0959,toilet,2021.1.3,99.87346031564225,
0,0,-4,4,1.15,,,,,1,0,1,0,0,44,44,6,,,,,,,,,,,,,,,,,,,,,,,548.885869699996,None,548.885869699996,None,548.3855302999727,None,j,0.4772416999330744,548.885869699996,None,,,,,,,c,001,2021_Jul_01_0959,toilet,2021.1.3,99.87346031564225,
0,180,4,-4,1.0,,,,,1,0,1,0,0,45,45,24,,,,,,,,,,,,,,,,,,,,,,,550.3869582000189,None,550.3869582000189,None,549.8865394999739,None,f,1.0241010999307036,550.3869582000189,None,,,,,,,c,001,2021_Jul_01_0959,toilet,2021.1.3,99.87346031564225,
0,180,4,-4,1.03,,,,,1,0,1,0,0,46,46,25,,,,,,,,,,,,,,,,,,,,,,,552.4282654999988,None,552.4282654999988,None,551.9280115000438,None,f,0.6466817999025807,552.4282654999988,None,,,,,,,c,001,2021_Jul_01_0959,toilet,2021.1.3,99.87346031564225,
180,0,4,-4,1.03,,,,,1,0,1,0,0,47,47,53,,,,,,,,,,,,,,,,,,,,,,,554.0793836000375,None,554.0793836000375,None,553.5790448000189,None,j,8.051733399974182,554.0793836000375,None,,,,,,,c,001,2021_Jul_01_0959,toilet,2021.1.3,99.87346031564225,
180,180,-4,4,1.03,,,,,1,0,1,0,0,48,48,32,,,,,,,,,,,,,,,,,,,,,,,563.1555329000112,None,563.1555329000112,None,562.6551920999773,None,j,0.7676611000206321,563.1555329000112,None,,,,,,,c,001,2021_Jul_01_0959,toilet,2021.1.3,99.87346031564225,
180,180,4,-4,1.03,,,,,1,0,1,0,0,49,49,39,,,,,,,,,,,,,,,,,,,,,,,564.936750199995,None,564.936750199995,None,564.4363948999671,None,j,1.1941429000580683,564.936750199995,None,,,,,,,c,001,2021_Jul_01_0959,toilet,2021.1.3,99.87346031564225,
180,180,4,-4,0.94,,,,,1,0,1,0,0,50,50,36,,,,,,,,,,,,,,,,,,,,,,,567.1383093999466,None,567.1383093999466,None,566.6379269999452,None,j,0.6727741999784485,567.1383093999466,None,,,,,,,c,001,2021_Jul_01_0959,toilet,2021.1.3,99.87346031564225,
0,180,4,-4,1.15,,,,,1,0,1,0,0,51,51,27,,,,,,,,,,,,,,,,,,,,,,,568.8193631999893,None,568.8193631999893,None,568.3190292000072,None,f,0.5117913999129087,568.8193631999893,None,,,,,,,c,001,2021_Jul_01_0959,toilet,2021.1.3,99.87346031564225,
0,0,4,-4,0.97,,,,,1,0,1,0,0,52,52,9,,,,,,,,,,,,,,,,,,,,,,,570.3403937999392,None,570.3403937999392,None,569.8400543000316,None,j,0.47867059998679906,570.3403937999392,None,,,,,,,c,001,2021_Jul_01_0959,toilet,2021.1.3,99.87346031564225,
0,0,4,-4,1.06,,,,,1,0,1,0,0,53,53,12,,,,,,,,,,,,,,,,,,,,,,,571.8314043999417,None,571.8314043999417,None,571.3310651000356,None,f,0.6675532000372186,571.8314043999417,None,,,,,,,c,001,2021_Jul_01_0959,toilet,2021.1.3,99.87346031564225,
180,180,4,-4,1.06,,,,,1,0,1,0,0,54,54,40,,,,,,,,,,,,,,,,,,,,,,,573.5025352999801,None,573.5025352999801,None,573.0021962999599,None,f,1.284639099962078,573.5025352999801,None,,,,,,,c,001,2021_Jul_01_0959,toilet,2021.1.3,99.87346031564225,
180,0,4,-4,1.15,,,,,1,0,1,0,0,55,55,55,,,,,,,,,,,,,,,,,,,,,,,575.7940861999523,None,575.7940861999523,None,575.3037628999446,None,f,0.9448076999979094,575.7940861999523,None,,,,,,,c,001,2021_Jul_01_0959,toilet,2021.1.3,99.87346031564225,
180,0,-4,4,0.85,,,,,1,0,1,0,1,0,56,42,,,,,,,,,,,,,,,,,,,,,,,577.7454114999855,None,577.7454114999855,None,577.2451163999503,None,f,0.41796789993532,577.7454114999855,None,,,,,,,c,001,2021_Jul_01_0959,toilet,2021.1.3,99.87346031564225,
0,180,-4,4,0.97,,,,,1,0,1,0,1,1,57,16,,,,,,,,,,,,,,,,,,,,,,,579.1863852000097,None,579.1863852000097,None,578.6860439999728,None,j,1.0566351000452414,579.1863852000097,None,,,,,,,c,001,2021_Jul_01_0959,toilet,2021.1.3,99.87346031564225,
180,180,-4,4,0.94,,,,,1,0,1,0,1,2,58,29,,,,,,,,,,,,,,,,,,,,,,,581.2578590000048,None,581.2578590000048,None,580.7575221000006,None,f,0.6651955000124872,581.2578590000048,None,,,,,,,c,001,2021_Jul_01_0959,toilet,2021.1.3,99.87346031564225,
0,0,-4,4,0.94,,,,,1,0,1,0,1,3,59,1,,,,,,,,,,,,,,,,,,,,,,,582.9289199999766,None,582.9289199999766,None,582.4285605000332,None,f,0.6580229999963194,582.9289199999766,None,,,,,,,c,001,2021_Jul_01_0959,toilet,2021.1.3,99.87346031564225,
0,180,4,-4,0.85,,,,,1,0,1,0,1,4,60,21,,,,,,,,,,,,,,,,,,,,,,,584.5900521000149,None,584.5900521000149,None,584.0897079999559,None,j,0.5329891999717802,584.5900521000149,None,,,,,,,c,001,2021_Jul_01_0959,toilet,2021.1.3,99.87346031564225,
180,180,-4,4,1.03,,,,,1,0,1,0,1,5,61,32,,,,,,,,,,,,,,,,,,,,,,,586.1511149000144,None,586.1511149000144,None,585.6507600999903,None,j,1.6279424000531435,586.1511149000144,None,,,,,,,c,001,2021_Jul_01_0959,toilet,2021.1.3,99.87346031564225,
0,0,-4,4,0.85,,,,,1,0,1,0,1,6,62,0,,,,,,,,,,,,,,,,,,,,,,,588.7928928999463,None,588.7928928999463,None,588.2926531999838,None,f,0.3940652000019327,588.7928928999463,None,,,,,,,c,001,2021_Jul_01_0959,toilet,2021.1.3,99.87346031564225,
0,180,-4,4,0.94,,,,,1,0,1,0,1,7,63,15,,,,,,,,,,,,,,,,,,,,,,,590.1938388999552,None,590.1938388999552,None,589.6934991000453,None,f,0.5132314999355003,590.1938388999552,None,,,,,,,c,001,2021_Jul_01_0959,toilet,2021.1.3,99.87346031564225,
180,0,4,-4,1.06,,,,,1,0,1,0,1,8,64,54,,,,,,,,,,,,,,,,,,,,,,,591.7148694000207,None,591.7148694000207,None,591.2145290999906,None,f,1.824259900022298,591.7148694000207,None,,,,,,,c,001,2021_Jul_01_0959,toilet,2021.1.3,99.87346031564225,
180,180,-4,4,1.06,,,,,1,0,1,0,1,9,65,33,,,,,,,,,,,,,,,,,,,,,,,594.5668802999426,None,594.5668802999426,None,594.0664696999593,None,j,0.7323133000172675,594.5668802999426,None,,,,,,,c,001,2021_Jul_01_0959,toilet,2021.1.3,99.87346031564225,
180,0,-4,4,1.0,,,,,1,0,1,0,1,10,66,45,,,,,,,,,,,,,,,,,,,,,,,596.318024200038,None,596.318024200038,None,595.8176536000101,None,f,5.604999599978328,596.318024200038,None,,,,,,,c,001,2021_Jul_01_0959,toilet,2021.1.3,99.87346031564225,
0,180,-4,4,1.0,,,,,1,0,1,0,1,11,67,17,,,,,,,,,,,,,,,,,,,,,,,602.9425417999737,None,602.9425417999737,None,602.442146299989,None,j,1.41234300006181,602.9425417999737,None,,,,,,,c,001,2021_Jul_01_0959,toilet,2021.1.3,99.87346031564225,
0,180,4,-4,1.03,,,,,1,0,1,0,1,12,68,25,,,,,,,,,,,,,,,,,,,,,,,605.3641127999872,None,605.3641127999872,None,604.8637715999503,None,f,1.5189669999526814,605.3641127999872,None,,,,,,,c,001,2021_Jul_01_0959,toilet,2021.1.3,99.87346031564225,
0,0,-4,4,0.97,,,,,1,0,1,0,1,13,69,2,,,,,,,,,,,,,,,,,,,,,,,607.8958273000317,None,607.8958273000317,None,607.3954868000001,None,f,0.5232931000646204,607.8958273000317,None,,,,,,,c,001,2021_Jul_01_0959,toilet,2021.1.3,99.87346031564225,
180,180,4,-4,1.0,,,,,1,0,1,0,1,14,70,38,,,,,,,,,,,,,,,,,,,,,,,609.4368704999797,None,609.4368704999797,None,608.9365332999732,None,f,7.286153899971396,609.4368704999797,None,,,,,,,c,001,2021_Jul_01_0959,toilet,2021.1.3,99.87346031564225,
0,0,-4,4,1.0,,,,,1,0,1,0,1,15,71,3,,,,,,,,,,,,,,,,,,,,,,,617.7224819000112,None,617.7224819000112,None,617.2222206000006,None,j,1.0485351000679657,617.7224819000112,None,,,,,,,c,001,2021_Jul_01_0959,toilet,2021.1.3,99.87346031564225,
180,180,4,-4,1.03,,,,,1,0,1,0,1,16,72,39,,,,,,,,,,,,,,,,,,,,,,,619.7738679000176,None,619.7738679000176,None,619.2735282999929,None,f,2.08501400006935,619.7738679000176,None,,,,,,,c,001,2021_Jul_01_0959,toilet,2021.1.3,99.87346031564225,
0,0,-4,4,1.03,,,,,1,0,1,0,1,17,73,4,,,,,,,,,,,,,,,,,,,,,,,622.8659614999779,None,622.8659614999779,None,622.365619200049,None,j,0.721097799949348,622.8659614999779,None,,,,,,,c,001,2021_Jul_01_0959,toilet,2021.1.3,99.87346031564225,
180,180,-4,4,1.15,,,,,1,0,1,0,1,18,74,34,,,,,,,,,,,,,,,,,,,,,,,624.597135100048,None,624.597135100048,None,624.0968755000504,None,j,0.5259348000399768,624.597135100048,None,,,,,,,c,001,2021_Jul_01_0959,toilet,2021.1.3,99.87346031564225,
0,180,-4,4,1.15,,,,,1,0,1,0,1,19,75,20,,,,,,,,,,,,,,,,,,,,,,,626.1382872000104,None,626.1382872000104,None,625.637840499985,None,j,0.5047130999155343,626.1382872000104,None,,,,,,,c,001,2021_Jul_01_0959,toilet,2021.1.3,99.87346031564225,
180,0,4,-4,1.0,,,,,1,0,1,0,1,20,76,52,,,,,,,,,,,,,,,,,,,,,,,627.6492050000234,None,627.6492050000234,None,627.1488823000109,None,j,1.5536817000247538,627.6492050000234,None,,,,,,,c,001,2021_Jul_01_0959,toilet,2021.1.3,99.87346031564225,
180,0,4,-4,1.15,,,,,1,0,1,0,1,21,77,55,,,,,,,,,,,,,,,,,,,,,,,630.2109322999604,None,630.2109322999604,None,629.7105957999593,None,f,0.5439366999780759,630.2109322999604,None,,,,,,,c,001,2021_Jul_01_0959,toilet,2021.1.3,99.87346031564225,
0,180,4,-4,1.0,,,,,1,0,1,0,1,22,78,24,,,,,,,,,,,,,,,,,,,,,,,631.7720681000501,None,631.7720681000501,None,631.2716542000417,None,f,5.718876100028865,631.7720681000501,None,,,,,,,c,001,2021_Jul_01_0959,toilet,2021.1.3,99.87346031564225,
180,0,4,-4,1.03,,,,,1,0,1,0,1,23,79,53,,,,,,,,,,,,,,,,,,,,,,,638.506552399951,None,638.506552399951,None,638.0062162999529,None,f,3.800342099973932,638.506552399951,None,,,,,,,c,001,2021_Jul_01_0959,toilet,2021.1.3,99.87346031564225,
180,0,4,-4,0.85,,,,,1,0,1,0,1,24,80,49,,,,,,,,,,,,,,,,,,,,,,,643.3098026999505,None,643.3098026999505,None,642.8094687999692,None,j,0.5331846999470145,643.3098026999505,None,,,,,,,c,001,2021_Jul_01_0959,toilet,2021.1.3,99.87346031564225,
180,0,4,-4,0.97,,,,,1,0,1,0,1,25,81,51,,,,,,,,,,,,,,,,,,,,,,,644.8608546999749,None,644.8608546999749,None,644.3605149999494,None,j,1.6380103999981657,644.8608546999749,None,,,,,,,c,001,2021_Jul_01_0959,toilet,2021.1.3,99.87346031564225,
180,0,4,-4,0.94,,,,,1,0,1,0,1,26,82,50,,,,,,,,,,,,,,,,,,,,,,,647.5027292999439,None,647.5027292999439,None,647.0023207999766,None,j,1.204206700087525,647.5027292999439,None,,,,,,,c,001,2021_Jul_01_0959,toilet,2021.1.3,99.87346031564225,
0,0,-4,4,1.15,,,,,1,0,1,0,1,27,83,6,,,,,,,,,,,,,,,,,,,,,,,649.7141423999565,None,649.7141423999565,None,649.2138058999553,None,j,0.4967333000386134,649.7141423999565,None,,,,,,,c,001,2021_Jul_01_0959,toilet,2021.1.3,99.87346031564225,
0,0,4,-4,1.03,,,,,1,0,1,0,1,28,84,11,,,,,,,,,,,,,,,,,,,,,,,651.2151602000231,None,651.2151602000231,None,650.7148199999938,None,f,0.5479099000804126,651.2151602000231,None,,,,,,,c,001,2021_Jul_01_0959,toilet,2021.1.3,99.87346031564225,
0,0,4,-4,0.97,,,,,1,0,1,0,1,29,85,9,,,,,,,,,,,,,,,,,,,,,,,652.7762146999594,None,652.7762146999594,None,652.2758797999704,None,j,2.6346279999706894,652.7762146999594,None,,,,,,,c,001,2021_Jul_01_0959,toilet,2021.1.3,99.87346031564225,
0,0,4,-4,1.0,,,,,1,0,1,0,1,30,86,10,,,,,,,,,,,,,,,,,,,,,,,656.4286871999502,None,656.4286871999502,None,655.9283570999978,None,j,5.206365299993195,656.4286871999502,None,,,,,,,c,001,2021_Jul_01_0959,toilet,2021.1.3,99.87346031564225,
180,180,4,-4,1.06,,,,,1,0,1,0,1,31,87,40,,,,,,,,,,,,,,,,,,,,,,,662.6629298999906,None,662.6629298999906,None,662.1626561000012,None,f,0.571919700014405,662.6629298999906,None,,,,,,,c,001,2021_Jul_01_0959,toilet,2021.1.3,99.87346031564225,
0,0,4,-4,0.85,,,,,1,0,1,0,1,32,88,7,,,,,,,,,,,,,,,,,,,,,,,664.2439823000459,None,664.2439823000459,None,663.7436452000402,None,j,1.9030031999573112,664.2439823000459,None,,,,,,,c,001,2021_Jul_01_0959,toilet,2021.1.3,99.87346031564225,
0,180,4,-4,0.94,,,,,1,0,1,0,1,33,89,22,,,,,,,,,,,,,,,,,,,,,,,667.1559519999428,None,667.1559519999428,None,666.6556193999713,None,j,1.3750695999478921,667.1559519999428,None,,,,,,,c,001,2021_Jul_01_0959,toilet,2021.1.3,99.87346031564225,
0,180,4,-4,1.15,,,,,1,0,1,0,1,34,90,27,,,,,,,,,,,,,,,,,,,,,,,669.5476505999686,None,669.5476505999686,None,669.0472374999663,None,f,0.5352327000582591,669.5476505999686,None,,,,,,,c,001,2021_Jul_01_0959,toilet,2021.1.3,99.87346031564225,
180,0,-4,4,1.15,,,,,1,0,1,0,1,35,91,48,,,,,,,,,,,,,,,,,,,,,,,671.0886152000166,None,671.0886152000166,None,670.588278500014,None,j,0.5782074000453576,671.0886152000166,None,,,,,,,c,001,2021_Jul_01_0959,toilet,2021.1.3,99.87346031564225,
0,180,-4,4,1.06,,,,,1,0,1,0,1,36,92,19,,,,,,,,,,,,,,,,,,,,,,,672.6696850999724,None,672.6696850999724,None,672.1693475999637,None,j,1.061165799968876,672.6696850999724,None,,,,,,,c,001,2021_Jul_01_0959,toilet,2021.1.3,99.87346031564225,
0,0,4,-4,1.15,,,,,1,0,1,0,1,37,93,13,,,,,,,,,,,,,,,,,,,,,,,674.7410852999892,None,674.7410852999892,None,674.2407546000322,None,f,0.43000589997973293,674.7410852999892,None,,,,,,,c,001,2021_Jul_01_0959,toilet,2021.1.3,99.87346031564225,
180,180,4,-4,0.85,,,,,1,0,1,0,1,38,94,35,,,,,,,,,,,,,,,,,,,,,,,676.1820791999344,None,676.1820791999344,None,675.6817261000397,None,j,0.4769240999594331,676.1820791999344,None,,,,,,,c,001,2021_Jul_01_0959,toilet,2021.1.3,99.87346031564225,
180,180,-4,4,0.97,,,,,1,0,1,0,1,39,95,30,,,,,,,,,,,,,,,,,,,,,,,677.6730773999589,None,677.6730773999589,None,677.1727122999728,None,f,0.7138311000308022,677.6730773999589,None,,,,,,,c,001,2021_Jul_01_0959,toilet,2021.1.3,99.87346031564225,
0,0,-4,4,1.06,,,,,1,0,1,0,1,40,96,5,,,,,,,,,,,,,,,,,,,,,,,679.394238900044,None,679.394238900044,None,678.8939206999494,None,j,0.4645782000152394,679.394238900044,None,,,,,,,c,001,2021_Jul_01_0959,toilet,2021.1.3,99.87346031564225,
180,0,-4,4,1.06,,,,,1,0,1,0,1,41,97,47,,,,,,,,,,,,,,,,,,,,,,,680.8652357000392,None,680.8652357000392,None,680.3648964000167,None,j,0.9296910000266507,680.8652357000392,None,,,,,,,c,001,2021_Jul_01_0959,toilet,2021.1.3,99.87346031564225,
180,180,4,-4,0.94,,,,,1,0,1,0,1,42,98,36,,,,,,,,,,,,,,,,,,,,,,,682.8065498999786,None,682.8065498999786,None,682.3062081999378,None,j,0.5884471000172198,682.8065498999786,None,,,,,,,c,001,2021_Jul_01_0959,toilet,2021.1.3,99.87346031564225,
180,0,-4,4,0.97,,,,,1,0,1,0,1,43,99,44,,,,,,,,,,,,,,,,,,,,,,,684.4077286999673,None,684.4077286999673,None,683.9072930000257,None,f,0.4592743000248447,684.4077286999673,None,,,,,,,c,001,2021_Jul_01_0959,toilet,2021.1.3,99.87346031564225,
180,180,4,-4,0.97,,,,,1,0,1,0,1,44,100,37,,,,,,,,,,,,,,,,,,,,,,,685.8786311999429,None,685.8786311999429,None,685.3782897000201,None,j,0.7963535999879241,685.8786311999429,None,,,,,,,c,001,2021_Jul_01_0959,toilet,2021.1.3,99.87346031564225,
180,180,-4,4,0.85,,,,,1,0,1,0,1,45,101,28,,,,,,,,,,,,,,,,,,,,,,,687.6798484999454,None,687.6798484999454,None,687.179512099945,None,f,0.4031085999449715,687.6798484999454,None,,,,,,,c,001,2021_Jul_01_0959,toilet,2021.1.3,99.87346031564225,
0,180,-4,4,1.03,,,,,1,0,1,0,1,46,102,18,,,,,,,,,,,,,,,,,,,,,,,689.1108193999389,None,689.1108193999389,None,688.6104782000184,None,j,0.6680946999695152,689.1108193999389,None,,,,,,,c,001,2021_Jul_01_0959,toilet,2021.1.3,99.87346031564225,
0,0,4,-4,1.06,,,,,1,0,1,0,1,47,103,12,,,,,,,,,,,,,,,,,,,,,,,690.7819465999492,None,690.7819465999492,None,690.2816333000083,None,f,1.4928920000093058,690.7819465999492,None,,,,,,,c,001,2021_Jul_01_0959,toilet,2021.1.3,99.87346031564225,
0,180,4,-4,0.97,,,,,1,0,1,0,1,48,104,23,,,,,,,,,,,,,,,,,,,,,,,693.2836527000181,None,693.2836527000181,None,692.7833018000238,None,j,1.1513937000418082,693.2836527000181,None,,,,,,,c,001,2021_Jul_01_0959,toilet,2021.1.3,99.87346031564225,
180,180,-4,4,1.0,,,,,1,0,1,0,1,49,105,31,,,,,,,,,,,,,,,,,,,,,,,695.4350979999872,None,695.4350979999872,None,694.9347629999975,None,f,0.5677098999731243,695.4350979999872,None,,,,,,,c,001,2021_Jul_01_0959,toilet,2021.1.3,99.87346031564225,
0,0,4,-4,0.94,,,,,1,0,1,0,1,50,106,8,,,,,,,,,,,,,,,,,,,,,,,697.0061628000112,None,697.0061628000112,None,696.5058254000032,None,j,0.5166405000491068,697.0061628000112,None,,,,,,,c,001,2021_Jul_01_0959,toilet,2021.1.3,99.87346031564225,
180,180,4,-4,1.15,,,,,1,0,1,0,1,51,107,41,,,,,,,,,,,,,,,,,,,,,,,698.5272985999472,None,698.5272985999472,None,698.0268531000474,None,f,0.41953259997535497,698.5272985999472,None,,,,,,,c,001,2021_Jul_01_0959,toilet,2021.1.3,99.87346031564225,
180,0,-4,4,1.03,,,,,1,0,1,0,1,52,108,46,,,,,,,,,,,,,,,,,,,,,,,699.9581977999769,None,699.9581977999769,None,699.457844199962,None,j,0.5407563000917435,699.9581977999769,None,,,,,,,c,001,2021_Jul_01_0959,toilet,2021.1.3,99.87346031564225,
0,180,-4,4,0.85,,,,,1,0,1,0,1,53,109,14,,,,,,,,,,,,,,,,,,,,,,,701.4992051000008,None,701.4992051000008,None,700.9988670999883,None,f,0.5196761999977753,701.4992051000008,None,,,,,,,c,001,2021_Jul_01_0959,toilet,2021.1.3,99.87346031564225,
0,180,4,-4,1.06,,,,,1,0,1,0,1,54,110,26,,,,,,,,,,,,,,,,,,,,,,,703.0202371999621,None,703.0202371999621,None,702.5299033999909,None,f,0.6626803999533877,703.0202371999621,None,,,,,,,c,001,2021_Jul_01_0959,toilet,2021.1.3,99.87346031564225,
180,0,-4,4,0.94,,,,,1,0,1,0,1,55,111,43,,,,,,,,,,,,,,,,,,,,,,,704.7113773999736,None,704.7113773999736,None,704.2110664999345,None,f,0.7635689999442548,704.7113773999736,None,,,,,,,c,001,2021_Jul_01_0959,toilet,2021.1.3,99.87346031564225,
,,,,,,,,,1,0,1,0,,,,,,,,,,,,,,,,,,,,,,,,,,,,,,,,,,,,,705.4919089999748,None,space,2.5908626000164077,705.4919089999748,None,c,001,2021_Jul_01_0959,toilet,2021.1.3,99.87346031564225,
0,0,-4,4,1.0,,,,,2,0,2,0,0,0,0,3,,,,,,,,,,,,,,,,,708.1037286999635,None,space,4.715163399931043,708.1037286999635,None,713.8376466999762,None,713.8376466999762,None,713.3372236000141,None,j,1.1891404000343755,713.8376466999762,None,,,,,,,c,001,2021_Jul_01_0959,toilet,2021.1.3,99.87346031564225,
0,180,-4,4,1.03,,,,,2,0,2,0,0,1,1,18,,,,,,,,,,,,,,,,,,,,,,,716.0290362000233,None,716.0290362000233,None,715.5287059999537,None,j,0.7577635000925511,716.0290362000233,None,,,,,,,c,001,2021_Jul_01_0959,toilet,2021.1.3,99.87346031564225,
0,180,-4,4,0.85,,,,,2,0,2,0,0,2,2,14,,,,,,,,,,,,,,,,,,,,,,,717.7902382999891,None,717.7902382999891,None,717.28989549994,None,f,0.45253479992970824,717.7902382999891,None,,,,,,,c,001,2021_Jul_01_0959,toilet,2021.1.3,99.87346031564225,
180,180,4,-4,1.15,,,,,2,0,2,0,0,3,3,41,,,,,,,,,,,,,,,,,,,,,,,719.2513095999602,None,719.2513095999602,None,718.7509212000296,None,f,0.6554917000466958,719.2513095999602,None,,,,,,,c,001,2021_Jul_01_0959,toilet,2021.1.3,99.87346031564225,
0,0,4,-4,0.85,,,,,2,0,2,0,0,4,4,7,,,,,,,,,,,,,,,,,,,,,,,720.9124647999415,None,720.9124647999415,None,720.4120110999793,None,j,0.466452700085938,720.9124647999415,None,,,,,,,c,001,2021_Jul_01_0959,toilet,2021.1.3,99.87346031564225,
0,0,4,-4,0.97,,,,,2,0,2,0,0,5,5,9,,,,,,,,,,,,,,,,,,,,,,,722.3933528000489,None,722.3933528000489,None,721.8931103999494,None,j,0.5054744000080973,722.3933528000489,None,,,,,,,c,001,2021_Jul_01_0959,toilet,2021.1.3,99.87346031564225,
180,180,4,-4,1.03,,,,,2,0,2,0,0,6,6,39,,,,,,,,,,,,,,,,,,,,,,,723.904374100035,None,723.904374100035,None,723.4040369000286,None,f,0.46652140002697706,723.904374100035,None,,,,,,,c,001,2021_Jul_01_0959,toilet,2021.1.3,99.87346031564225,
180,0,4,-4,0.97,,,,,2,0,2,0,0,7,7,51,,,,,,,,,,,,,,,,,,,,,,,725.3753778999671,None,725.3753778999671,None,724.8750363000436,None,j,0.6593913999386132,725.3753778999671,None,,,,,,,c,001,2021_Jul_01_0959,toilet,2021.1.3,99.87346031564225,
180,0,-4,4,1.03,,,,,2,0,2,0,0,8,8,46,,,,,,,,,,,,,,,,,,,,,,,727.0365012999391,None,727.0365012999391,None,726.5361580000026,None,j,0.5982927000150084,727.0365012999391,None,,,,,,,c,001,2021_Jul_01_0959,toilet,2021.1.3,99.87346031564225,
0,0,4,-4,1.03,,,,,2,0,2,0,0,9,9,11,,,,,,,,,,,,,,,,,,,,,,,728.6475880999351,None,728.6475880999351,None,728.1473420000402,None,f,0.5872273000422865,728.6475880999351,None,,,,,,,c,001,2021_Jul_01_0959,toilet,2021.1.3,99.87346031564225,
0,180,-4,4,1.06,,,,,2,0,2,0,0,10,10,19,,,,,,,,,,,,,,,,,,,,,,,730.248669099994,None,730.248669099994,None,729.7483364000218,None,j,0.5061910999938846,730.248669099994,None,,,,,,,c,001,2021_Jul_01_0959,toilet,2021.1.3,99.87346031564225,
0,180,4,-4,1.03,,,,,2,0,2,0,0,11,11,25,,,,,,,,,,,,,,,,,,,,,,,731.759693,None,731.759693,None,731.2593556999927,None,f,1.3151835999451578,731.759693,None,,,,,,,c,001,2021_Jul_01_0959,toilet,2021.1.3,99.87346031564225,
0,180,4,-4,1.15,,,,,2,0,2,0,0,12,12,27,,,,,,,,,,,,,,,,,,,,,,,734.0913384000305,None,734.0913384000305,None,733.5909295999445,None,f,0.47178599995095283,734.0913384000305,None,,,,,,,c,001,2021_Jul_01_0959,toilet,2021.1.3,99.87346031564225,
0,180,4,-4,0.94,,,,,2,0,2,0,0,13,13,22,,,,,,,,,,,,,,,,,,,,,,,735.5723142999923,None,735.5723142999923,None,735.0719359000213,None,j,0.5744665000820532,735.5723142999923,None,,,,,,,c,001,2021_Jul_01_0959,toilet,2021.1.3,99.87346031564225,
0,180,-4,4,1.0,,,,,2,0,2,0,0,14,14,17,,,,,,,,,,,,,,,,,,,,,,,737.1533456000034,None,737.1533456000034,None,736.6531039000256,None,j,0.9935656000161543,737.1533456000034,None,,,,,,,c,001,2021_Jul_01_0959,toilet,2021.1.3,99.87346031564225,
180,0,-4,4,1.06,,,,,2,0,2,0,0,15,15,47,,,,,,,,,,,,,,,,,,,,,,,739.1546969000483,None,739.1546969000483,None,738.6543684999924,None,j,0.6562317999778315,739.1546969000483,None,,,,,,,c,001,2021_Jul_01_0959,toilet,2021.1.3,99.87346031564225,
180,180,-4,4,1.0,,,,,2,0,2,0,0,16,16,31,,,,,,,,,,,,,,,,,,,,,,,740.8359273000387,None,740.8359273000387,None,740.3354999000439,None,j,1.1188769999425858,740.8359273000387,None,,,,,,,c,001,2021_Jul_01_0959,toilet,2021.1.3,99.87346031564225,
180,0,4,-4,1.15,,,,,2,0,2,0,0,17,17,55,,,,,,,,,,,,,,,,,,,,,,,742.9573703999631,None,742.9573703999631,None,742.4569375000428,None,f,0.5654191999929026,742.9573703999631,None,,,,,,,c,001,2021_Jul_01_0959,toilet,2021.1.3,99.87346031564225,
180,180,4,-4,0.94,,,,,2,0,2,0,0,18,18,36,,,,,,,,,,,,,,,,,,,,,,,744.5383624000242,None,744.5383624000242,None,744.0380270000314,None,j,0.5843898000894114,744.5383624000242,None,,,,,,,c,001,2021_Jul_01_0959,toilet,2021.1.3,99.87346031564225,
0,0,-4,4,0.85,,,,,2,0,2,0,0,19,19,0,,,,,,,,,,,,,,,,,,,,,,,746.1294250999345,None,746.1294250999345,None,745.6290807999903,None,f,0.5934552999678999,746.1294250999345,None,,,,,,,c,001,2021_Jul_01_0959,toilet,2021.1.3,99.87346031564225,
180,0,-4,4,0.85,,,,,2,0,2,0,0,20,20,42,,,,,,,,,,,,,,,,,,,,,,,747.7305061999941,None,747.7305061999941,None,747.2301663999679,None,f,0.5122301999945194,747.7305061999941,None,,,,,,,c,001,2021_Jul_01_0959,toilet,2021.1.3,99.87346031564225,
180,180,-4,4,0.97,,,,,2,0,2,0,0,21,21,30,,,,,,,,,,,,,,,,,,,,,,,749.2515380999539,None,749.2515380999539,None,748.7512091000099,None,f,0.6392051000148058,749.2515380999539,None,,,,,,,c,001,2021_Jul_01_0959,toilet,2021.1.3,99.87346031564225,
0,180,-4,4,1.15,,,,,2,0,2,0,0,22,22,20,,,,,,,,,,,,,,,,,,,,,,,750.8927423999412,None,750.8927423999412,None,750.3924058999401,None,j,0.4861227000365034,750.8927423999412,None,,,,,,,c,001,2021_Jul_01_0959,toilet,2021.1.3,99.87346031564225,
180,180,-4,4,0.85,,,,,2,0,2,0,0,23,23,28,,,,,,,,,,,,,,,,,,,,,,,752.38366209995,None,752.38366209995,None,751.893323999946,None,f,0.3713489000219852,752.38366209995,None,,,,,,,c,001,2021_Jul_01_0959,toilet,2021.1.3,99.87346031564225,
180,0,4,-4,0.94,,,,,2,0,2,0,0,24,24,50,,,,,,,,,,,,,,,,,,,,,,,753.7546090999385,None,753.7546090999385,None,753.2542451999616,None,j,0.4241917999461293,753.7546090999385,None,,,,,,,c,001,2021_Jul_01_0959,toilet,2021.1.3,99.87346031564225,
180,180,4,-4,1.06,,,,,2,0,2,0,0,25,25,40,,,,,,,,,,,,,,,,,,,,,,,755.1955624000402,None,755.1955624000402,None,754.6952263000421,None,f,0.40737400006037205,755.1955624000402,None,,,,,,,c,001,2021_Jul_01_0959,toilet,2021.1.3,99.87346031564225,
0,0,4,-4,1.06,,,,,2,0,2,0,0,26,26,12,,,,,,,,,,,,,,,,,,,,,,,756.616528899991,None,756.616528899991,None,756.1161849000491,None,f,0.47424139990471303,756.616528899991,None,,,,,,,c,001,2021_Jul_01_0959,toilet,2021.1.3,99.87346031564225,
180,0,-4,4,0.94,,,,,2,0,2,0,0,27,27,43,,,,,,,,,,,,,,,,,,,,,,,758.0975318000419,None,758.0975318000419,None,757.5972894999431,None,f,0.3692795999813825,758.0975318000419,None,,,,,,,c,001,2021_Jul_01_0959,toilet,2021.1.3,99.87346031564225,
180,0,4,-4,1.0,,,,,2,0,2,0,0,28,28,52,,,,,,,,,,,,,,,,,,,,,,,759.4684533999534,None,759.4684533999534,None,758.9681321999524,None,j,2.9664455000311136,759.4684533999534,None,,,,,,,c,001,2021_Jul_01_0959,toilet,2021.1.3,99.87346031564225,
0,0,-4,4,0.97,,,,,2,0,2,0,0,29,29,2,,,,,,,,,,,,,,,,,,,,,,,763.4611610999564,None,763.4611610999564,None,762.9609117000364,None,f,0.6057346999878064,763.4611610999564,None,,,,,,,c,001,2021_Jul_01_0959,toilet,2021.1.3,99.87346031564225,
180,0,4,-4,1.03,,,,,2,0,2,0,0,30,30,53,,,,,,,,,,,,,,,,,,,,,,,765.0923212999478,None,765.0923212999478,None,764.5919230999425,None,f,2.4784010000294074,765.0923212999478,None,,,,,,,c,001,2021_Jul_01_0959,toilet,2021.1.3,99.87346031564225,
0,180,4,-4,0.97,,,,,2,0,2,0,0,31,31,23,,,,,,,,,,,,,,,,,,,,,,,768.5746236999985,None,768.5746236999985,None,768.0742799999425,None,j,1.2041501000057906,768.5746236999985,None,,,,,,,c,001,2021_Jul_01_0959,toilet,2021.1.3,99.87346031564225,
0,180,4,-4,1.06,,,,,2,0,2,0,0,32,32,26,,,,,,,,,,,,,,,,,,,,,,,770.7861479000421,None,770.7861479000421,None,770.2857770000119,None,f,0.7367900999961421,770.7861479000421,None,,,,,,,c,001,2021_Jul_01_0959,toilet,2021.1.3,99.87346031564225,
180,180,-4,4,1.03,,,,,2,0,2,0,0,33,33,32,,,,,,,,,,,,,,,,,,,,,,,772.5373048000038,None,772.5373048000038,None,772.0370420999825,None,j,1.177432500058785,772.5373048000038,None,,,,,,,c,001,2021_Jul_01_0959,toilet,2021.1.3,99.87346031564225,
180,0,4,-4,1.06,,,,,2,0,2,0,0,34,34,54,,,,,,,,,,,,,,,,,,,,,,,774.7287856000476,None,774.7287856000476,None,774.2284482000396,None,f,2.9379962000530213,774.7287856000476,None,,,,,,,c,001,2021_Jul_01_0959,toilet,2021.1.3,99.87346031564225,
180,180,-4,4,1.15,,,,,2,0,2,0,0,35,35,34,,,,,,,,,,,,,,,,,,,,,,,778.6814590999857,None,778.6814590999857,None,778.1811237999937,None,j,0.5054930999176577,778.6814590999857,None,,,,,,,c,001,2021_Jul_01_0959,toilet,2021.1.3,99.87346031564225,
180,180,4,-4,0.85,,,,,2,0,2,0,0,36,36,35,,,,,,,,,,,,,,,,,,,,,,,780.2125935000367,None,780.2125935000367,None,779.712157699978,None,j,0.4943399999756366,780.2125935000367,None,,,,,,,c,001,2021_Jul_01_0959,toilet,2021.1.3,99.87346031564225,
0,180,4,-4,0.85,,,,,2,0,2,0,0,37,37,21,,,,,,,,,,,,,,,,,,,,,,,781.7235222000163,None,781.7235222000163,None,781.2231849000091,None,j,0.5191982000833377,781.7235222000163,None,,,,,,,c,001,2021_Jul_01_0959,toilet,2021.1.3,99.87346031564225,
0,0,-4,4,1.15,,,,,2,0,2,0,0,38,38,6,,,,,,,,,,,,,,,,,,,,,,,783.2445517999586,None,783.2445517999586,None,782.7442314999644,None,j,0.6463523999555036,783.2445517999586,None,,,,,,,c,001,2021_Jul_01_0959,toilet,2021.1.3,99.87346031564225,
0,0,4,-4,1.15,,,,,2,0,2,0,0,39,39,13,,,,,,,,,,,,,,,,,,,,,,,784.915690899943,None,784.915690899943,None,784.4153424999677,None,f,0.60706680000294,784.915690899943,None,,,,,,,c,001,2021_Jul_01_0959,toilet,2021.1.3,99.87346031564225,
180,0,4,-4,0.85,,,,,2,0,2,0,0,40,40,49,,,,,,,,,,,,,,,,,,,,,,,786.5268616999965,None,786.5268616999965,None,786.0264313999796,None,j,0.8838703000219539,786.5268616999965,None,,,,,,,c,001,2021_Jul_01_0959,toilet,2021.1.3,99.87346031564225,
0,0,4,-4,1.0,,,,,2,0,2,0,0,41,41,10,,,,,,,,,,,,,,,,,,,,,,,788.4181407999713,None,788.4181407999713,None,787.9178080999991,None,j,1.0086091000121087,788.4181407999713,None,,,,,,,c,001,2021_Jul_01_0959,toilet,2021.1.3,99.87346031564225,
0,0,-4,4,1.03,,,,,2,0,2,0,0,42,42,4,,,,,,,,,,,,,,,,,,,,,,,790.4294153000228,None,790.4294153000228,None,789.9290805000346,None,j,1.0134027000749484,790.4294153000228,None,,,,,,,c,001,2021_Jul_01_0959,toilet,2021.1.3,99.87346031564225,
0,0,4,-4,0.94,,,,,2,0,2,0,0,43,43,8,,,,,,,,,,,,,,,,,,,,,,,792.4707994000055,None,792.4707994000055,None,791.9704598999815,None,j,0.4760933000361547,792.4707994000055,None,,,,,,,c,001,2021_Jul_01_0959,toilet,2021.1.3,99.87346031564225,
0,180,4,-4,1.0,,,,,2,0,2,0,0,44,44,24,,,,,,,,,,,,,,,,,,,,,,,793.9619141999865,None,793.9619141999865,None,793.4614684999688,None,j,0.9211616000393406,793.9619141999865,None,,,,,,,c,001,2021_Jul_01_0959,toilet,2021.1.3,99.87346031564225,
180,180,4,-4,1.0,,,,,2,0,2,0,0,45,45,38,,,,,,,,,,,,,,,,,,,,,,,795.8931169999996,None,795.8931169999996,None,795.3928678999655,None,j,2.5257337000221014,795.8931169999996,None,,,,,,,c,001,2021_Jul_01_0959,toilet,2021.1.3,99.87346031564225,
0,180,-4,4,0.97,,,,,2,0,2,0,0,46,46,16,,,,,,,,,,,,,,,,,,,,,,,799.4455195999471,None,799.4455195999471,None,798.9451800000388,None,f,1.485329799936153,799.4455195999471,None,,,,,,,c,001,2021_Jul_01_0959,toilet,2021.1.3,99.87346031564225,
180,180,4,-4,0.97,,,,,2,0,2,0,0,47,47,37,,,,,,,,,,,,,,,,,,,,,,,801.9472190999659,None,801.9472190999659,None,801.4469644000055,None,j,1.2716790999984369,801.9472190999659,None,,,,,,,c,001,2021_Jul_01_0959,toilet,2021.1.3,99.87346031564225,
180,0,-4,4,1.15,,,,,2,0,2,0,0,48,48,48,,,,,,,,,,,,,,,,,,,,,,,804.228757899953,None,804.228757899953,None,803.7284239999717,None,j,0.44596799998544157,804.228757899953,None,,,,,,,c,001,2021_Jul_01_0959,toilet,2021.1.3,99.87346031564225,
0,0,-4,4,0.94,,,,,2,0,2,0,0,49,49,1,,,,,,,,,,,,,,,,,,,,,,,805.6797384000383,None,805.6797384000383,None,805.1794047999429,None,f,0.6271131000248715,805.6797384000383,None,,,,,,,c,001,2021_Jul_01_0959,toilet,2021.1.3,99.87346031564225,
180,180,-4,4,1.06,,,,,2,0,2,0,0,50,50,33,,,,,,,,,,,,,,,,,,,,,,,807.3308578999713,None,807.3308578999713,None,806.8305181999458,None,j,0.4959887999575585,807.3308578999713,None,,,,,,,c,001,2021_Jul_01_0959,toilet,2021.1.3,99.87346031564225,
180,0,-4,4,1.0,,,,,2,0,2,0,0,51,51,45,,,,,,,,,,,,,,,,,,,,,,,808.8518860000186,None,808.8518860000186,None,808.351641700021,None,j,0.5430017000762746,808.8518860000186,None,,,,,,,c,001,2021_Jul_01_0959,toilet,2021.1.3,99.87346031564225,
0,180,-4,4,0.94,,,,,2,0,2,0,0,52,52,15,,,,,,,,,,,,,,,,,,,,,,,810.4129809000297,None,810.4129809000297,None,809.9126054999651,None,f,0.48571389995049685,810.4129809000297,None,,,,,,,c,001,2021_Jul_01_0959,toilet,2021.1.3,99.87346031564225,
180,0,-4,4,0.97,,,,,2,0,2,0,0,53,53,44,,,,,,,,,,,,,,,,,,,,,,,811.9039560999954,None,811.9039560999954,None,811.403612599941,None,f,1.2027959999395534,811.9039560999954,None,,,,,,,c,001,2021_Jul_01_0959,toilet,2021.1.3,99.87346031564225,
180,180,-4,4,0.94,,,,,2,0,2,0,0,54,54,29,,,,,,,,,,,,,,,,,,,,,,,814.1154534999514,None,814.1154534999514,None,813.615119199967,None,f,0.5273894999409094,814.1154534999514,None,,,,,,,c,001,2021_Jul_01_0959,toilet,2021.1.3,99.87346031564225,
0,0,-4,4,1.06,,,,,2,0,2,0,0,55,55,5,,,,,,,,,,,,,,,,,,,,,,,815.6564959000098,None,815.6564959000098,None,815.1561570999911,None,j,0.6982179000042379,815.6564959000098,None,,,,,,,c,001,2021_Jul_01_0959,toilet,2021.1.3,99.87346031564225,
0,0,4,-4,0.85,,,,,2,0,2,0,1,0,56,7,,,,,,,,,,,,,,,,,,,,,,,817.3576766999904,None,817.3576766999904,None,816.8574161999859,None,j,0.6612049000104889,817.3576766999904,None,,,,,,,c,001,2021_Jul_01_0959,toilet,2021.1.3,99.87346031564225,
180,180,-4,4,1.06,,,,,2,0,2,0,1,1,57,33,,,,,,,,,,,,,,,,,,,,,,,819.0287772000302,None,819.0287772000302,None,818.5284432000481,None,j,0.49453600007109344,819.0287772000302,None,,,,,,,c,001,2021_Jul_01_0959,toilet,2021.1.3,99.87346031564225,
180,0,-4,4,1.03,,,,,2,0,2,0,1,2,58,46,,,,,,,,,,,,,,,,,,,,,,,820.5297983000055,None,820.5297983000055,None,820.0294561999617,None,j,0.48114950000308454,820.5297983000055,None,,,,,,,c,001,2021_Jul_01_0959,toilet,2021.1.3,99.87346031564225,
0,0,-4,4,1.03,,,,,2,0,2,0,1,3,59,4,,,,,,,,,,,,,,,,,,,,,,,822.0208058999851,None,822.0208058999851,None,821.5204686999787,None,j,0.7499507999746129,822.0208058999851,None,,,,,,,c,001,2021_Jul_01_0959,toilet,2021.1.3,99.87346031564225,
0,180,-4,4,1.15,,,,,2,0,2,0,1,4,60,20,,,,,,,,,,,,,,,,,,,,,,,823.7820202000439,None,823.7820202000439,None,823.2817344999639,None,j,0.5886744000017643,823.7820202000439,None,,,,,,,c,001,2021_Jul_01_0959,toilet,2021.1.3,99.87346031564225,
0,180,-4,4,1.0,,,,,2,0,2,0,1,5,61,17,,,,,,,,,,,,,,,,,,,,,,,825.3831193000078,None,825.3831193000078,None,824.8827834000112,None,j,1.7075503000523895,825.3831193000078,None,,,,,,,c,001,2021_Jul_01_0959,toilet,2021.1.3,99.87346031564225,
180,0,4,-4,1.0,,,,,2,0,2,0,1,6,62,52,,,,,,,,,,,,,,,,,,,,,,,828.094911799999,None,828.094911799999,None,827.5945778000169,None,f,0.4518555999966338,828.094911799999,None,,,,,,,c,001,2021_Jul_01_0959,toilet,2021.1.3,99.87346031564225,
0,0,4,-4,0.94,,,,,2,0,2,0,1,7,63,8,,,,,,,,,,,,,,,,,,,,,,,829.5559079999803,None,829.5559079999803,None,829.0555649000453,None,j,0.510714799980633,829.5559079999803,None,,,,,,,c,001,2021_Jul_01_0959,toilet,2021.1.3,99.87346031564225,
180,180,4,-4,1.06,,,,,2,0,2,0,1,8,64,40,,,,,,,,,,,,,,,,,,,,,,,831.066965200007,None,831.066965200007,None,830.5665942999767,None,f,0.4076525999698788,831.066965200007,None,,,,,,,c,001,2021_Jul_01_0959,toilet,2021.1.3,99.87346031564225,
0,180,4,-4,0.97,,,,,2,0,2,0,1,9,65,23,,,,,,,,,,,,,,,,,,,,,,,832.4779671999859,None,832.4779671999859,None,831.9775614000391,None,j,0.8206899999640882,832.4779671999859,None,,,,,,,c,001,2021_Jul_01_0959,toilet,2021.1.3,99.87346031564225,
0,0,4,-4,1.0,,,,,2,0,2,0,1,10,66,10,,,,,,,,,,,,,,,,,,,,,,,834.2991133000469,None,834.2991133000469,None,833.7987786999438,None,j,0.48760490003041923,834.2991133000469,None,,,,,,,c,001,2021_Jul_01_0959,toilet,2021.1.3,99.87346031564225,
0,0,-4,4,0.94,,,,,2,0,2,0,1,11,67,1,,,,,,,,,,,,,,,,,,,,,,,835.8001292999834,None,835.8001292999834,None,835.2997979000211,None,f,0.730640499969013,835.8001292999834,None,,,,,,,c,001,2021_Jul_01_0959,toilet,2021.1.3,99.87346031564225,
180,0,-4,4,1.0,,,,,2,0,2,0,1,12,68,45,,,,,,,,,,,,,,,,,,,,,,,837.5413092999952,None,837.5413092999952,None,837.0409701999743,None,j,1.5016420999309048,837.5413092999952,None,,,,,,,c,001,2021_Jul_01_0959,toilet,2021.1.3,99.87346031564225,
180,0,4,-4,0.85,,,,,2,0,2,0,1,13,69,49,,,,,,,,,,,,,,,,,,,,,,,840.0530532000121,None,840.0530532000121,None,839.5527524999343,None,j,0.47754949994850904,840.0530532000121,None,,,,,,,c,001,2021_Jul_01_0959,toilet,2021.1.3,99.87346031564225,
180,180,-4,4,1.0,,,,,2,0,2,0,1,14,70,31,,,,,,,,,,,,,,,,,,,,,,,841.5340101999464,None,841.5340101999464,None,841.0336723999353,None,j,1.8768044000025839,841.5340101999464,None,,,,,,,c,001,2021_Jul_01_0959,toilet,2021.1.3,99.87346031564225,
180,0,4,-4,1.06,,,,,2,0,2,0,1,15,71,54,,,,,,,,,,,,,,,,,,,,,,,844.425974200014,None,844.425974200014,None,843.9256329999771,None,f,0.5209853000706062,844.425974200014,None,,,,,,,c,001,2021_Jul_01_0959,toilet,2021.1.3,99.87346031564225,
0,0,-4,4,1.15,,,,,2,0,2,0,1,16,72,6,,,,,,,,,,,,,,,,,,,,,,,845.9570060999831,None,845.9570060999831,None,845.4567599999718,None,j,0.4618339999578893,845.9570060999831,None,,,,,,,c,001,2021_Jul_01_0959,toilet,2021.1.3,99.87346031564225,
180,180,-4,4,0.94,,,,,2,0,2,0,1,17,73,29,,,,,,,,,,,,,,,,,,,,,,,847.4280040999874,None,847.4280040999874,None,846.9277063000482,None,f,0.7986482999986038,847.4280040999874,None,,,,,,,c,001,2021_Jul_01_0959,toilet,2021.1.3,99.87346031564225,
180,180,-4,4,1.15,,,,,2,0,2,0,1,18,74,34,,,,,,,,,,,,,,,,,,,,,,,849.2292255000211,None,849.2292255000211,None,848.7288879000116,None,j,0.3735320999985561,849.2292255000211,None,,,,,,,c,001,2021_Jul_01_0959,toilet,2021.1.3,99.87346031564225,
180,0,4,-4,0.97,,,,,2,0,2,0,1,19,75,51,,,,,,,,,,,,,,,,,,,,,,,850.610160100041,None,850.610160100041,None,850.1098198000109,None,j,1.0566547999624163,850.610160100041,None,,,,,,,c,001,2021_Jul_01_0959,toilet,2021.1.3,99.87346031564225,
180,180,4,-4,0.94,,,,,2,0,2,0,1,20,76,36,,,,,,,,,,,,,,,,,,,,,,,852.6915684000123,None,852.6915684000123,None,852.1912257999647,None,j,0.4952222000574693,852.6915684000123,None,,,,,,,c,001,2021_Jul_01_0959,toilet,2021.1.3,99.87346031564225,
180,0,-4,4,0.85,,,,,2,0,2,0,1,21,77,42,,,,,,,,,,,,,,,,,,,,,,,854.2126893999521,None,854.2126893999521,None,853.7123336000368,None,f,0.4459625000599772,854.2126893999521,None,,,,,,,c,001,2021_Jul_01_0959,toilet,2021.1.3,99.87346031564225,
0,0,4,-4,0.97,,,,,2,0,2,0,1,22,78,9,,,,,,,,,,,,,,,,,,,,,,,855.6635779000353,None,855.6635779000353,None,855.1632380000083,None,j,0.4991824000608176,855.6635779000353,None,,,,,,,c,001,2021_Jul_01_0959,toilet,2021.1.3,99.87346031564225,
180,0,-4,4,0.94,,,,,2,0,2,0,1,23,79,43,,,,,,,,,,,,,,,,,,,,,,,857.1645950999809,None,857.1645950999809,None,856.6642607999966,None,f,1.254230699967593,857.1645950999809,None,,,,,,,c,001,2021_Jul_01_0959,toilet,2021.1.3,99.87346031564225,
0,180,-4,4,0.97,,,,,2,0,2,0,1,24,80,16,,,,,,,,,,,,,,,,,,,,,,,859.446139000007,None,859.446139000007,None,858.9458009999944,None,j,1.7885943000437692,859.446139000007,None,,,,,,,c,001,2021_Jul_01_0959,toilet,2021.1.3,99.87346031564225,
180,0,4,-4,1.03,,,,,2,0,2,0,1,25,81,53,,,,,,,,,,,,,,,,,,,,,,,862.2480575999944,None,862.2480575999944,None,861.7477336999727,None,j,0.6026002001017332,862.2480575999944,None,,,,,,,c,001,2021_Jul_01_0959,toilet,2021.1.3,99.87346031564225,
0,0,4,-4,1.15,,,,,2,0,2,0,1,26,82,13,,,,,,,,,,,,,,,,,,,,,,,863.8591259999666,None,863.8591259999666,None,863.3587897999678,None,f,0.5274939999217167,863.8591259999666,None,,,,,,,c,001,2021_Jul_01_0959,toilet,2021.1.3,99.87346031564225,
0,180,4,-4,0.85,,,,,2,0,2,0,1,27,83,21,,,,,,,,,,,,,,,,,,,,,,,865.3901723000454,None,865.3901723000454,None,864.8898568999721,None,j,0.43640540004707873,865.3901723000454,None,,,,,,,c,001,2021_Jul_01_0959,toilet,2021.1.3,99.87346031564225,
180,180,4,-4,0.85,,,,,2,0,2,0,1,28,84,35,,,,,,,,,,,,,,,,,,,,,,,866.8311392000178,None,866.8311392000178,None,866.3308027000166,None,j,0.4677964000729844,866.8311392000178,None,,,,,,,c,001,2021_Jul_01_0959,toilet,2021.1.3,99.87346031564225,
180,0,-4,4,1.06,,,,,2,0,2,0,1,29,85,47,,,,,,,,,,,,,,,,,,,,,,,868.3222349999705,None,868.3222349999705,None,867.8219092999352,None,j,0.5123289000475779,868.3222349999705,None,,,,,,,c,001,2021_Jul_01_0959,toilet,2021.1.3,99.87346031564225,
0,180,-4,4,0.85,,,,,2,0,2,0,1,30,86,14,,,,,,,,,,,,,,,,,,,,,,,869.8431789999595,None,869.8431789999595,None,869.3428530000383,None,f,0.5435934999259189,869.8431789999595,None,,,,,,,c,001,2021_Jul_01_0959,toilet,2021.1.3,99.87346031564225,
0,180,-4,4,1.06,,,,,2,0,2,0,1,31,87,19,,,,,,,,,,,,,,,,,,,,,,,871.3942332000006,None,871.3942332000006,None,870.8938927999698,None,j,0.5444038000423461,871.3942332000006,None,,,,,,,c,001,2021_Jul_01_0959,toilet,2021.1.3,99.87346031564225,
180,180,4,-4,1.15,,,,,2,0,2,0,1,32,88,41,,,,,,,,,,,,,,,,,,,,,,,872.9452768999618,None,872.9452768999618,None,872.4449381999439,None,f,0.5135281999828294,872.9452768999618,None,,,,,,,c,001,2021_Jul_01_0959,toilet,2021.1.3,99.87346031564225,
0,0,4,-4,1.06,,,,,2,0,2,0,1,33,89,12,,,,,,,,,,,,,,,,,,,,,,,874.476318400004,None,874.476318400004,None,873.9759571000468,None,f,0.8545186000410467,874.476318400004,None,,,,,,,c,001,2021_Jul_01_0959,toilet,2021.1.3,99.87346031564225,
0,180,4,-4,1.03,,,,,2,0,2,0,1,34,90,25,,,,,,,,,,,,,,,,,,,,,,,876.3475958999479,None,876.3475958999479,None,875.8473250999814,None,f,0.9511094000190496,876.3475958999479,None,,,,,,,c,001,2021_Jul_01_0959,toilet,2021.1.3,99.87346031564225,
180,180,-4,4,1.03,,,,,2,0,2,0,1,35,91,32,,,,,,,,,,,,,,,,,,,,,,,878.2989051999757,None,878.2989051999757,None,877.7985650999472,None,j,1.6558795999735594,878.2989051999757,None,,,,,,,c,001,2021_Jul_01_0959,toilet,2021.1.3,99.87346031564225,
0,0,-4,4,0.85,,,,,2,0,2,0,1,36,92,0,,,,,,,,,,,,,,,,,,,,,,,880.9807168999687,None,880.9807168999687,None,880.4803767999401,None,f,0.46197129995562136,880.9807168999687,None,,,,,,,c,001,2021_Jul_01_0959,toilet,2021.1.3,99.87346031564225,
180,180,-4,4,0.85,,,,,2,0,2,0,1,37,93,28,,,,,,,,,,,,,,,,,,,,,,,882.4517138999654,None,882.4517138999654,None,881.9513803999871,None,f,0.4149180999957025,882.4517138999654,None,,,,,,,c,001,2021_Jul_01_0959,toilet,2021.1.3,99.87346031564225,
180,180,-4,4,0.97,,,,,2,0,2,0,1,38,94,30,,,,,,,,,,,,,,,,,,,,,,,883.8727556000231,None,883.8727556000231,None,883.3724379000487,None,f,0.8659051000140607,883.8727556000231,None,,,,,,,c,001,2021_Jul_01_0959,toilet,2021.1.3,99.87346031564225,
180,0,4,-4,1.15,,,,,2,0,2,0,1,39,95,55,,,,,,,,,,,,,,,,,,,,,,,885.7439423999749,None,885.7439423999749,None,885.2436037999578,None,f,0.546763899968937,885.7439423999749,None,,,,,,,c,001,2021_Jul_01_0959,toilet,2021.1.3,99.87346031564225,
180,0,-4,4,1.15,,,,,2,0,2,0,1,40,96,48,,,,,,,,,,,,,,,,,,,,,,,887.2949964000145,None,887.2949964000145,None,886.7946583000012,None,j,0.6279956999933347,887.2949964000145,None,,,,,,,c,001,2021_Jul_01_0959,toilet,2021.1.3,99.87346031564225,
0,180,4,-4,1.0,,,,,2,0,2,0,1,41,97,24,,,,,,,,,,,,,,,,,,,,,,,888.9461110000266,None,888.9461110000266,None,888.445779099944,None,j,0.5125957999844104,888.9461110000266,None,,,,,,,c,001,2021_Jul_01_0959,toilet,2021.1.3,99.87346031564225,
180,180,4,-4,1.03,,,,,2,0,2,0,1,42,98,39,,,,,,,,,,,,,,,,,,,,,,,890.4771978999488,None,890.4771978999488,None,889.9768955999753,None,f,1.317384700058028,890.4771978999488,None,,,,,,,c,001,2021_Jul_01_0959,toilet,2021.1.3,99.87346031564225,
0,0,4,-4,1.03,,,,,2,0,2,0,1,43,99,11,,,,,,,,,,,,,,,,,,,,,,,892.8087292000419,None,892.8087292000419,None,892.3083875000011,None,f,0.6339429999934509,892.8087292000419,None,,,,,,,c,001,2021_Jul_01_0959,toilet,2021.1.3,99.87346031564225,
180,0,4,-4,0.94,,,,,2,0,2,0,1,44,100,50,,,,,,,,,,,,,,,,,,,,,,,894.4498017999576,None,894.4498017999576,None,893.9494974999689,None,j,0.976957599981688,894.4498017999576,None,,,,,,,c,001,2021_Jul_01_0959,toilet,2021.1.3,99.87346031564225,
0,180,4,-4,0.94,,,,,2,0,2,0,1,45,101,22,,,,,,,,,,,,,,,,,,,,,,,896.4511911999434,None,896.4511911999434,None,895.9508590999758,None,j,1.3275091999676079,896.4511911999434,None,,,,,,,c,001,2021_Jul_01_0959,toilet,2021.1.3,99.87346031564225,
0,0,-4,4,1.0,,,,,2,0,2,0,1,46,102,3,,,,,,,,,,,,,,,,,,,,,,,898.7928265000228,None,898.7928265000228,None,898.292443000013,None,j,3.337724899989553,898.7928265000228,None,,,,,,,c,001,2021_Jul_01_0959,toilet,2021.1.3,99.87346031564225,
0,180,-4,4,1.03,,,,,2,0,2,0,1,47,103,18,,,,,,,,,,,,,,,,,,,,,,,903.1357286999701,None,903.1357286999701,None,902.6354013000382,None,j,1.1870340999448672,903.1357286999701,None,,,,,,,c,001,2021_Jul_01_0959,toilet,2021.1.3,99.87346031564225,
0,0,-4,4,0.97,,,,,2,0,2,0,1,48,104,2,,,,,,,,,,,,,,,,,,,,,,,905.3371975000482,None,905.3371975000482,None,904.8469032000285,None,f,0.7133562000235543,905.3371975000482,None,,,,,,,c,001,2021_Jul_01_0959,toilet,2021.1.3,99.87346031564225,
0,0,-4,4,1.06,,,,,2,0,2,0,1,49,105,5,,,,,,,,,,,,,,,,,,,,,,,907.0583754000254,None,907.0583754000254,None,906.5580410000402,None,j,0.6722348000621423,907.0583754000254,None,,,,,,,c,001,2021_Jul_01_0959,toilet,2021.1.3,99.87346031564225,
180,180,4,-4,0.97,,,,,2,0,2,0,1,50,106,37,,,,,,,,,,,,,,,,,,,,,,,908.7395165000344,None,908.7395165000344,None,908.239189999993,None,j,2.0630438000662252,908.7395165000344,None,,,,,,,c,001,2021_Jul_01_0959,toilet,2021.1.3,99.87346031564225,
180,180,4,-4,1.0,,,,,2,0,2,0,1,51,107,38,,,,,,,,,,,,,,,,,,,,,,,911.8115831000032,None,911.8115831000032,None,911.3112351000309,None,f,0.6550393999787048,911.8115831000032,None,,,,,,,c,001,2021_Jul_01_0959,toilet,2021.1.3,99.87346031564225,
0,180,4,-4,1.06,,,,,2,0,2,0,1,52,108,26,,,,,,,,,,,,,,,,,,,,,,,913.4727750000311,None,913.4727750000311,None,912.9723963999422,None,f,0.5138292999472469,913.4727750000311,None,,,,,,,c,001,2021_Jul_01_0959,toilet,2021.1.3,99.87346031564225,
0,180,-4,4,0.94,,,,,2,0,2,0,1,53,109,15,,,,,,,,,,,,,,,,,,,,,,,914.9937688999344,None,914.9937688999344,None,914.4933881999459,None,f,2.4169763999525458,914.9937688999344,None,,,,,,,c,001,2021_Jul_01_0959,toilet,2021.1.3,99.87346031564225,
180,0,-4,4,0.97,,,,,2,0,2,0,1,54,110,44,,,,,,,,,,,,,,,,,,,,,,,918.4360762999859,None,918.4360762999859,None,917.9357404999901,None,f,1.1825592999812216,918.4360762999859,None,,,,,,,c,001,2021_Jul_01_0959,toilet,2021.1.3,99.87346031564225,
0,180,4,-4,1.15,,,,,2,0,2,0,1,55,111,27,,,,,,,,,,,,,,,,,,,,,,,920.6275975999888,None,920.6275975999888,None,920.1272923999932,None,f,0.7190158000448719,920.6275975999888,None,,,,,,,c,001,2021_Jul_01_0959,toilet,2021.1.3,99.87346031564225,
,,,,,,,,,2,0,2,0,,,,,,,,,,,,,,,,,,,,,,,,,,,,,,,,,,,,,921.3681004999671,None,space,1.5464791000122204,921.3681004999671,None,c,001,2021_Jul_01_0959,toilet,2021.1.3,99.87346031564225,
0,0,4,-4,1.15,,,,,3,0,3,0,0,0,0,13,,,,,,,,,,,,,,,,,922.929118799977,None,space,1.05761999997776,922.929118799977,None,925.0605613000225,None,925.0605613000225,None,924.5602357999887,None,f,1.038121800054796,925.0605613000225,None,,,,,,,c,001,2021_Jul_01_0959,toilet,2021.1.3,99.87346031564225,
0,180,4,-4,0.85,,,,,3,0,3,0,0,1,1,21,,,,,,,,,,,,,,,,,,,,,,,927.1120376000181,None,927.1120376000181,None,926.6116117000347,None,j,0.36260619992390275,927.1120376000181,None,,,,,,,c,001,2021_Jul_01_0959,toilet,2021.1.3,99.87346031564225,
0,180,-4,4,1.15,,,,,3,0,3,0,0,2,2,20,,,,,,,,,,,,,,,,,,,,,,,928.4929804999847,None,928.4929804999847,None,927.9926270999713,None,j,0.42165010003373027,928.4929804999847,None,,,,,,,c,001,2021_Jul_01_0959,toilet,2021.1.3,99.87346031564225,
180,180,-4,4,0.97,,,,,3,0,3,0,0,3,3,30,,,,,,,,,,,,,,,,,,,,,,,929.9138465999858,None,929.9138465999858,None,929.413514600019,None,f,0.6006874999729916,929.9138465999858,None,,,,,,,c,001,2021_Jul_01_0959,toilet,2021.1.3,99.87346031564225,
180,180,-4,4,1.03,,,,,3,0,3,0,0,4,4,32,,,,,,,,,,,,,,,,,,,,,,,931.5149327999679,None,931.5149327999679,None,931.0145913000451,None,j,1.7676616000244394,931.5149327999679,None,,,,,,,c,001,2021_Jul_01_0959,toilet,2021.1.3,99.87346031564225,
0,0,-4,4,1.15,,,,,3,0,3,0,0,5,5,6,,,,,,,,,,,,,,,,,,,,,,,934.2868837999413,None,934.2868837999413,None,933.7864728999557,None,j,0.4839024000102654,934.2868837999413,None,,,,,,,c,001,2021_Jul_01_0959,toilet,2021.1.3,99.87346031564225,
0,0,4,-4,1.03,,,,,3,0,3,0,0,6,6,11,,,,,,,,,,,,,,,,,,,,,,,935.7878642999567,None,935.7878642999567,None,935.2875702000456,None,f,0.5027872999198735,935.7878642999567,None,,,,,,,c,001,2021_Jul_01_0959,toilet,2021.1.3,99.87346031564225,
180,0,-4,4,1.15,,,,,3,0,3,0,0,7,7,48,,,,,,,,,,,,,,,,,,,,,,,937.2988503000233,None,937.2988503000233,None,936.798507999978,None,j,0.38380800001323223,937.2988503000233,None,,,,,,,c,001,2021_Jul_01_0959,toilet,2021.1.3,99.87346031564225,
0,0,4,-4,0.94,,,,,3,0,3,0,0,8,8,8,,,,,,,,,,,,,,,,,,,,,,,938.6897959000198,None,938.6897959000198,None,938.189448100049,None,j,0.5128870999906212,938.6897959000198,None,,,,,,,c,001,2021_Jul_01_0959,toilet,2021.1.3,99.87346031564225,
0,180,-4,4,1.0,,,,,3,0,3,0,0,9,9,17,,,,,,,,,,,,,,,,,,,,,,,940.2308378999587,None,940.2308378999587,None,939.7304941000184,None,f,2.043909400003031,940.2308378999587,None,,,,,,,c,001,2021_Jul_01_0959,toilet,2021.1.3,99.87346031564225,
180,180,-4,4,1.15,,,,,3,0,3,0,0,10,10,34,,,,,,,,,,,,,,,,,,,,,,,943.292908799951,None,943.292908799951,None,942.7925860999385,None,j,0.5337377999676391,943.292908799951,None,,,,,,,c,001,2021_Jul_01_0959,toilet,2021.1.3,99.87346031564225,
0,180,-4,4,0.94,,,,,3,0,3,0,0,11,11,15,,,,,,,,,,,,,,,,,,,,,,,944.8339546000352,None,944.8339546000352,None,944.3336090999655,None,f,0.6565754000330344,944.8339546000352,None,,,,,,,c,001,2021_Jul_01_0959,toilet,2021.1.3,99.87346031564225,
180,0,4,-4,1.03,,,,,3,0,3,0,0,12,12,53,,,,,,,,,,,,,,,,,,,,,,,946.4950776000042,None,946.4950776000042,None,945.9947314000456,None,f,1.1717458000639454,946.4950776000042,None,,,,,,,c,001,2021_Jul_01_0959,toilet,2021.1.3,99.87346031564225,
0,180,-4,4,0.85,,,,,3,0,3,0,0,13,13,14,,,,,,,,,,,,,,,,,,,,,,,948.6765534000006,None,948.6765534000006,None,948.1762113999575,None,f,0.5579944000346586,948.6765534000006,None,,,,,,,c,001,2021_Jul_01_0959,toilet,2021.1.3,99.87346031564225,
180,0,4,-4,0.97,,,,,3,0,3,0,0,14,14,51,,,,,,,,,,,,,,,,,,,,,,,950.2376785000088,None,950.2376785000088,None,949.7372653000057,None,j,0.5329207999166101,950.2376785000088,None,,,,,,,c,001,2021_Jul_01_0959,toilet,2021.1.3,99.87346031564225,
180,180,-4,4,1.06,,,,,3,0,3,0,0,15,15,33,,,,,,,,,,,,,,,,,,,,,,,951.7886662000092,None,951.7886662000092,None,951.2883177000331,None,j,0.613983100047335,951.7886662000092,None,,,,,,,c,001,2021_Jul_01_0959,toilet,2021.1.3,99.87346031564225,
180,0,4,-4,1.15,,,,,3,0,3,0,0,16,16,55,,,,,,,,,,,,,,,,,,,,,,,953.4097650999902,None,953.4097650999902,None,952.9094138999935,None,f,0.40111699991393834,953.4097650999902,None,,,,,,,c,001,2021_Jul_01_0959,toilet,2021.1.3,99.87346031564225,
180,0,-4,4,1.06,,,,,3,0,3,0,0,17,17,47,,,,,,,,,,,,,,,,,,,,,,,954.8207119000144,None,954.8207119000144,None,954.3203788000392,None,j,0.42998720007017255,954.8207119000144,None,,,,,,,c,001,2021_Jul_01_0959,toilet,2021.1.3,99.87346031564225,
180,180,-4,4,0.94,,,,,3,0,3,0,0,18,18,29,,,,,,,,,,,,,,,,,,,,,,,956.261684600031,None,956.261684600031,None,955.7613480000291,None,f,0.3970198000315577,956.261684600031,None,,,,,,,c,001,2021_Jul_01_0959,toilet,2021.1.3,99.87346031564225,
180,180,4,-4,1.03,,,,,3,0,3,0,0,19,19,39,,,,,,,,,,,,,,,,,,,,,,,957.6726415000157,None,957.6726415000157,None,957.1723091000458,None,f,0.47408160008490086,957.6726415000157,None,,,,,,,c,001,2021_Jul_01_0959,toilet,2021.1.3,99.87346031564225,
180,180,4,-4,1.06,,,,,3,0,3,0,0,20,20,40,,,,,,,,,,,,,,,,,,,,,,,959.1536454999587,None,959.1536454999587,None,958.6533012000145,None,f,0.4488395999651402,959.1536454999587,None,,,,,,,c,001,2021_Jul_01_0959,toilet,2021.1.3,99.87346031564225,
180,0,4,-4,1.06,,,,,3,0,3,0,0,21,21,54,,,,,,,,,,,,,,,,,,,,,,,960.6046265000477,None,960.6046265000477,None,960.1042859000154,None,f,2.150054599973373,960.6046265000477,None,,,,,,,c,001,2021_Jul_01_0959,toilet,2021.1.3,99.87346031564225,
180,180,4,-4,1.0,,,,,3,0,3,0,0,22,22,38,,,,,,,,,,,,,,,,,,,,,,,963.7667682999745,None,963.7667682999745,None,963.2664294999558,None,f,0.5398552999831736,963.7667682999745,None,,,,,,,c,001,2021_Jul_01_0959,toilet,2021.1.3,99.87346031564225,
180,180,-4,4,0.85,,,,,3,0,3,0,0,23,23,28,,,,,,,,,,,,,,,,,,,,,,,965.3179086999735,None,965.3179086999735,None,964.8175704999594,None,f,0.4127485000062734,965.3179086999735,None,,,,,,,c,001,2021_Jul_01_0959,toilet,2021.1.3,99.87346031564225,
0,0,-4,4,0.94,,,,,3,0,3,0,0,24,24,1,,,,,,,,,,,,,,,,,,,,,,,966.7387769999914,None,966.7387769999914,None,966.2384382999735,None,f,0.559732099995017,966.7387769999914,None,,,,,,,c,001,2021_Jul_01_0959,toilet,2021.1.3,99.87346031564225,
180,180,4,-4,0.97,,,,,3,0,3,0,0,25,25,37,,,,,,,,,,,,,,,,,,,,,,,968.2998442000244,None,968.2998442000244,None,967.7994947000407,None,j,0.8706667000660673,968.2998442000244,None,,,,,,,c,001,2021_Jul_01_0959,toilet,2021.1.3,99.87346031564225,
0,180,4,-4,1.0,,,,,3,0,3,0,0,26,26,24,,,,,,,,,,,,,,,,,,,,,,,970.1711024999386,None,970.1711024999386,None,969.670764700044,None,f,0.56750230002217,970.1711024999386,None,,,,,,,c,001,2021_Jul_01_0959,toilet,2021.1.3,99.87346031564225,
0,0,-4,4,0.97,,,,,3,0,3,0,0,27,27,2,,,,,,,,,,,,,,,,,,,,,,,971.7521704999963,None,971.7521704999963,None,971.2519261999987,None,f,0.7463312998879701,971.7521704999963,None,,,,,,,c,001,2021_Jul_01_0959,toilet,2021.1.3,99.87346031564225,
180,180,-4,4,1.0,,,,,3,0,3,0,0,28,28,31,,,,,,,,,,,,,,,,,,,,,,,973.503355099936,None,973.503355099936,None,973.0030204999493,None,f,0.6751656000269577,973.503355099936,None,,,,,,,c,001,2021_Jul_01_0959,toilet,2021.1.3,99.87346031564225,
0,180,4,-4,1.03,,,,,3,0,3,0,0,29,29,25,,,,,,,,,,,,,,,,,,,,,,,975.1844960999442,None,975.1844960999442,None,974.6841593999416,None,f,1.0579748000018299,975.1844960999442,None,,,,,,,c,001,2021_Jul_01_0959,toilet,2021.1.3,99.87346031564225,
0,0,4,-4,0.97,,,,,3,0,3,0,0,30,30,9,,,,,,,,,,,,,,,,,,,,,,,977.2458917000331,None,977.2458917000331,None,976.7455506999977,None,j,0.5648115000221878,977.2458917000331,None,,,,,,,c,001,2021_Jul_01_0959,toilet,2021.1.3,99.87346031564225,
180,0,4,-4,0.94,,,,,3,0,3,0,0,31,31,50,,,,,,,,,,,,,,,,,,,,,,,978.8269792000065,None,978.8269792000065,None,978.3266597000184,None,j,0.615690500009805,978.8269792000065,None,,,,,,,c,001,2021_Jul_01_0959,toilet,2021.1.3,99.87346031564225,
180,0,-4,4,0.85,,,,,3,0,3,0,0,32,32,42,,,,,,,,,,,,,,,,,,,,,,,980.4580684000393,None,980.4580684000393,None,979.9577624000376,None,f,0.4084778999676928,980.4580684000393,None,,,,,,,c,001,2021_Jul_01_0959,toilet,2021.1.3,99.87346031564225,
0,180,4,-4,1.15,,,,,3,0,3,0,0,33,33,27,,,,,,,,,,,,,,,,,,,,,,,981.8690247000195,None,981.8690247000195,None,981.3686818999704,None,f,0.7578351000556722,981.8690247000195,None,,,,,,,c,001,2021_Jul_01_0959,toilet,2021.1.3,99.87346031564225,
180,0,-4,4,0.94,,,,,3,0,3,0,0,34,34,43,,,,,,,,,,,,,,,,,,,,,,,983.6402197999414,None,983.6402197999414,None,983.1398806000361,None,f,0.9224105000030249,983.6402197999414,None,,,,,,,c,001,2021_Jul_01_0959,toilet,2021.1.3,99.87346031564225,
180,0,4,-4,0.85,,,,,3,0,3,0,0,35,35,49,,,,,,,,,,,,,,,,,,,,,,,985.5915500000119,None,985.5915500000119,None,985.0912036999362,None,j,0.4910471000475809,985.5915500000119,None,,,,,,,c,001,2021_Jul_01_0959,toilet,2021.1.3,99.87346031564225,
0,0,4,-4,1.0,,,,,3,0,3,0,0,36,36,10,,,,,,,,,,,,,,,,,,,,,,,987.0925787000451,None,987.0925787000451,None,986.5923072999576,None,j,3.0060415000189096,987.0925787000451,None,,,,,,,c,001,2021_Jul_01_0959,toilet,2021.1.3,99.87346031564225,
0,0,4,-4,0.85,,,,,3,0,3,0,0,37,37,7,,,,,,,,,,,,,,,,,,,,,,,991.1052775999997,None,991.1052775999997,None,990.6049340999452,None,j,0.5934008000185713,991.1052775999997,None,,,,,,,c,001,2021_Jul_01_0959,toilet,2021.1.3,99.87346031564225,
180,180,4,-4,0.94,,,,,3,0,3,0,0,38,38,36,,,,,,,,,,,,,,,,,,,,,,,992.7163621999789,None,992.7163621999789,None,992.2160281999968,None,j,0.7422079999232665,992.7163621999789,None,,,,,,,c,001,2021_Jul_01_0959,toilet,2021.1.3,99.87346031564225,
0,0,-4,4,0.85,,,,,3,0,3,0,0,39,39,0,,,,,,,,,,,,,,,,,,,,,,,994.4675561999902,None,994.4675561999902,None,993.9672984000063,None,f,0.43096880009397864,994.4675561999902,None,,,,,,,c,001,2021_Jul_01_0959,toilet,2021.1.3,99.87346031564225,
0,0,4,-4,1.06,,,,,3,0,3,0,0,40,40,12,,,,,,,,,,,,,,,,,,,,,,,995.89851920004,None,995.89851920004,None,995.4082074000034,None,f,0.7599601000547409,995.89851920004,None,,,,,,,c,001,2021_Jul_01_0959,toilet,2021.1.3,99.87346031564225,
180,0,-4,4,1.03,,,,,3,0,3,0,0,41,41,46,,,,,,,,,,,,,,,,,,,,,,,997.6597139999503,None,997.6597139999503,None,997.1593718000222,None,j,1.4788587000221014,997.6597139999503,None,,,,,,,c,001,2021_Jul_01_0959,toilet,2021.1.3,99.87346031564225,
0,0,-4,4,1.03,,,,,3,0,3,0,0,42,42,4,,,,,,,,,,,,,,,,,,,,,,,1000.1514000999741,None,1000.1514000999741,None,999.6510594999418,None,j,0.651347899925895,1000.1514000999741,None,,,,,,,c,001,2021_Jul_01_0959,toilet,2021.1.3,99.87346031564225,
0,180,-4,4,0.97,,,,,3,0,3,0,0,43,43,16,,,,,,,,,,,,,,,,,,,,,,,1001.8126185999718,None,1001.8126185999718,None,1001.3122685999842,None,f,3.517854299978353,1001.8126185999718,None,,,,,,,c,001,2021_Jul_01_0959,toilet,2021.1.3,99.87346031564225,
0,0,-4,4,1.0,,,,,3,0,3,0,0,44,44,3,,,,,,,,,,,,,,,,,,,,,,,1006.3356025000103,None,1006.3356025000103,None,1005.8352463999763,None,j,0.9789516000309959,1006.3356025000103,None,,,,,,,c,001,2021_Jul_01_0959,toilet,2021.1.3,99.87346031564225,
0,0,-4,4,1.06,,,,,3,0,3,0,0,45,45,5,,,,,,,,,,,,,,,,,,,,,,,1008.327031099936,None,1008.327031099936,None,1007.8266135000158,None,j,0.4754598999861628,1008.327031099936,None,,,,,,,c,001,2021_Jul_01_0959,toilet,2021.1.3,99.87346031564225,
0,180,4,-4,0.94,,,,,3,0,3,0,0,46,46,22,,,,,,,,,,,,,,,,,,,,,,,1009.8079475000268,None,1009.8079475000268,None,1009.3076874000253,None,j,0.8665099000791088,1009.8079475000268,None,,,,,,,c,001,2021_Jul_01_0959,toilet,2021.1.3,99.87346031564225,
0,180,-4,4,1.06,,,,,3,0,3,0,0,47,47,19,,,,,,,,,,,,,,,,,,,,,,,1011.6792034000391,None,1011.6792034000391,None,1011.1788700999459,None,j,0.5792923000408337,1011.6792034000391,None,,,,,,,c,001,2021_Jul_01_0959,toilet,2021.1.3,99.87346031564225,
0,180,-4,4,1.03,,,,,3,0,3,0,0,48,48,18,,,,,,,,,,,,,,,,,,,,,,,1013.2602768000215,None,1013.2602768000215,None,1012.7599369999953,None,j,2.2462476000655442,1013.2602768000215,None,,,,,,,c,001,2021_Jul_01_0959,toilet,2021.1.3,99.87346031564225,
0,180,4,-4,0.97,,,,,3,0,3,0,0,49,49,23,,,,,,,,,,,,,,,,,,,,,,,1016.5225737999426,None,1016.5225737999426,None,1016.0222306000069,None,j,0.5200599000090733,1016.5225737999426,None,,,,,,,c,001,2021_Jul_01_0959,toilet,2021.1.3,99.87346031564225,
180,180,4,-4,1.15,,,,,3,0,3,0,0,50,50,41,,,,,,,,,,,,,,,,,,,,,,,1018.053518599947,None,1018.053518599947,None,1017.5531881999923,None,f,0.47700860002078116,1018.053518599947,None,,,,,,,c,001,2021_Jul_01_0959,toilet,2021.1.3,99.87346031564225,
180,0,4,-4,1.0,,,,,3,0,3,0,0,51,51,52,,,,,,,,,,,,,,,,,,,,,,,1019.5345221000025,None,1019.5345221000025,None,1019.0341842999915,None,j,0.7399582000216469,1019.5345221000025,None,,,,,,,c,001,2021_Jul_01_0959,toilet,2021.1.3,99.87346031564225,
180,180,4,-4,0.85,,,,,3,0,3,0,0,52,52,35,,,,,,,,,,,,,,,,,,,,,,,1021.2757017000113,None,1021.2757017000113,None,1020.7753651000094,None,j,0.40708150004502386,1021.2757017000113,None,,,,,,,c,001,2021_Jul_01_0959,toilet,2021.1.3,99.87346031564225,
180,0,-4,4,1.0,,,,,3,0,3,0,0,53,53,45,,,,,,,,,,,,,,,,,,,,,,,1022.6966679999605,None,1022.6966679999605,None,1022.1964010000229,None,f,1.8818301999708638,1022.6966679999605,None,,,,,,,c,001,2021_Jul_01_0959,toilet,2021.1.3,99.87346031564225,
0,180,4,-4,1.06,,,,,3,0,3,0,0,54,54,26,,,,,,,,,,,,,,,,,,,,,,,1025.5786137999967,None,1025.5786137999967,None,1025.0782807000214,None,f,0.5518401999725029,1025.5786137999967,None,,,,,,,c,001,2021_Jul_01_0959,toilet,2021.1.3,99.87346031564225,
180,0,-4,4,0.97,,,,,3,0,3,0,0,55,55,44,,,,,,,,,,,,,,,,,,,,,,,1027.1296701999381,None,1027.1296701999381,None,1026.6293314000359,None,f,0.8247487000189722,1027.1296701999381,None,,,,,,,c,001,2021_Jul_01_0959,toilet,2021.1.3,99.87346031564225,
180,0,4,-4,0.97,,,,,3,0,3,0,1,0,56,51,,,,,,,,,,,,,,,,,,,,,,,1028.9609061999945,None,1028.9609061999945,None,1028.4605659999652,None,j,0.48164209991227835,1028.9609061999945,None,,,,,,,c,001,2021_Jul_01_0959,toilet,2021.1.3,99.87346031564225,
180,0,4,-4,0.85,,,,,3,0,3,0,1,1,57,49,,,,,,,,,,,,,,,,,,,,,,,1030.472015999956,None,1030.472015999956,None,1029.9715897999704,None,j,0.42658800003118813,1030.472015999956,None,,,,,,,c,001,2021_Jul_01_0959,toilet,2021.1.3,99.87346031564225,
180,0,-4,4,0.94,,,,,3,0,3,0,1,2,58,43,,,,,,,,,,,,,,,,,,,,,,,1031.9129411999602,None,1031.9129411999602,None,1031.4126601000316,None,f,0.42549709999002516,1031.9129411999602,None,,,,,,,c,001,2021_Jul_01_0959,toilet,2021.1.3,99.87346031564225,
180,180,-4,4,0.97,,,,,3,0,3,0,1,3,59,30,,,,,,,,,,,,,,,,,,,,,,,1033.3438745000167,None,1033.3438745000167,None,1032.843537800014,None,f,0.6586038999957964,1033.3438745000167,None,,,,,,,c,001,2021_Jul_01_0959,toilet,2021.1.3,99.87346031564225,
