ori_st,ori_pr,xpos_st,xpos_pr,size,trials_3.thisRepN,trials_3.thisTrialN,trials_3.thisN,trials_3.thisIndex,trials_2.thisRepN,trials_2.thisTrialN,trials_2.thisN,trials_2.thisIndex,trials.thisRepN,trials.thisTrialN,trials.thisN,trials.thisIndex,wel_pra.started,wel_pra.stopped,resp_wel.keys,resp_wel.rt,resp_wel.started,resp_wel.stopped,standard_pra.started,standard_pra.stopped,prove_pra.started,prove_pra.stopped,fixation.started,fixation.stopped,resp_pra.keys,resp_pra.rt,resp_pra.started,resp_pra.stopped,instr.started,instr.stopped,key_resp_2.keys,key_resp_2.rt,key_resp_2.started,key_resp_2.stopped,standard.started,standard.stopped,probe.started,probe.stopped,text.started,text.stopped,resp.keys,resp.rt,resp.started,resp.stopped,text_2.started,text_2.stopped,key_resp.keys,key_resp.rt,key_resp.started,key_resp.stopped,participant,session,date,expName,psychopyVersion,frameRate,
,,,,,,,,,,,,,,,,,31.791138800006593,None,space,103.10356469999533,31.791138800006593,None,,,,,,,,,,,,,,,,,,,,,,,,,,,,,,,,,o,001,2021_Jul_08_1436,toilet,2021.1.3,99.90459111008592,
180,0,-4,4,1.15,0,0,0,15,,,,,,,,,,,,,,,135.91622119999374,None,135.91622119999374,None,135.41588270000648,None,j,1.810347599996021,135.91622119999374,None,,,,,,,,,,,,,,,,,,,,,,,o,001,2021_Jul_08_1436,toilet,2021.1.3,99.90459111008592,
180,180,-4,4,1.15,0,1,1,11,,,,,,,,,,,,,,,138.73813929999596,None,138.73813929999596,None,138.2378017999872,None,j,0.6845779000141192,138.73813929999596,None,,,,,,,,,,,,,,,,,,,,,,,o,001,2021_Jul_08_1436,toilet,2021.1.3,99.90459111008592,
180,180,-4,4,1.15,0,2,2,10,,,,,,,,,,,,,,,140.43929079998634,None,140.43929079998634,None,139.93903589999536,None,j,0.40724559998488985,140.43929079998634,None,,,,,,,,,,,,,,,,,,,,,,,o,001,2021_Jul_08_1436,toilet,2021.1.3,99.90459111008592,
180,0,-4,4,1.15,0,3,3,14,,,,,,,,,,,,,,,141.8502526000084,None,141.8502526000084,None,141.34999449999304,None,j,0.6603532999870367,141.8502526000084,None,,,,,,,,,,,,,,,,,,,,,,,o,001,2021_Jul_08_1436,toilet,2021.1.3,99.90459111008592,
180,180,-4,4,0.85,0,4,4,8,,,,,,,,,,,,,,,143.5113798000093,None,143.5113798000093,None,143.01103729999159,None,f,0.4071494000090752,143.5113798000093,None,,,,,,,,,,,,,,,,,,,,,,,o,001,2021_Jul_08_1436,toilet,2021.1.3,99.90459111008592,
0,180,-4,4,1.15,0,5,5,6,,,,,,,,,,,,,,,144.9223411999992,None,144.9223411999992,None,144.42199480001,None,j,0.37225350001244806,144.9223411999992,None,,,,,,,,,,,,,,,,,,,,,,,o,001,2021_Jul_08_1436,toilet,2021.1.3,99.90459111008592,
0,180,4,-4,0.85,0,6,6,5,,,,,,,,,,,,,,,146.30326879999484,None,146.30326879999484,None,145.80293239999446,None,j,0.3835884000000078,146.30326879999484,None,,,,,,,,,,,,,,,,,,,,,,,o,001,2021_Jul_08_1436,toilet,2021.1.3,99.90459111008592,
0,180,-4,4,0.85,0,7,7,4,,,,,,,,,,,,,,,147.71429740000167,None,147.71429740000167,None,147.21389439998893,None,f,0.38030470002559014,147.71429740000167,None,,,,,,,,,,,,,,,,,,,,,,,o,001,2021_Jul_08_1436,toilet,2021.1.3,99.90459111008592,
180,180,-4,4,0.85,0,8,8,9,,,,,,,,,,,,,,,149.10524539998733,None,149.10524539998733,None,148.60491080000065,None,f,0.38128790000337176,149.10524539998733,None,,,,,,,,,,,,,,,,,,,,,,,o,001,2021_Jul_08_1436,toilet,2021.1.3,99.90459111008592,
0,0,-4,4,1.15,0,9,9,2,,,,,,,,,,,,,,,150.48611349999555,None,150.48611349999555,None,149.98577969998587,None,j,0.37642090002191253,150.48611349999555,None,,,,,,,,,,,,,,,,,,,,,,,o,001,2021_Jul_08_1436,toilet,2021.1.3,99.90459111008592,
180,0,-4,4,0.85,0,10,10,13,,,,,,,,,,,,,,,151.8670565999928,None,151.8670565999928,None,151.3667126999935,None,f,0.3076596000173595,151.8670565999928,None,,,,,,,,,,,,,,,,,,,,,,,o,001,2021_Jul_08_1436,toilet,2021.1.3,99.90459111008592,
180,0,-4,4,0.85,0,11,11,12,,,,,,,,,,,,,,,153.18794020000496,None,153.18794020000496,None,152.6876016999886,None,f,0.3626611999934539,153.18794020000496,None,,,,,,,,,,,,,,,,,,,,,,,o,001,2021_Jul_08_1436,toilet,2021.1.3,99.90459111008592,
0,0,4,-4,1.15,0,12,12,3,,,,,,,,,,,,,,,154.55894919999992,None,154.55894919999992,None,154.05853869998828,None,f,0.639710700022988,154.55894919999992,None,,,,,,,,,,,,,,,,,,,,,,,o,001,2021_Jul_08_1436,toilet,2021.1.3,99.90459111008592,
0,180,4,-4,1.15,0,13,13,7,,,,,,,,,,,,,,,156.21003059999202,None,156.21003059999202,None,155.70974120000028,None,f,0.36452730000019073,156.21003059999202,None,,,,,,,,,,,,,,,,,,,,,,,o,001,2021_Jul_08_1436,toilet,2021.1.3,99.90459111008592,
0,0,-4,4,0.85,0,14,14,0,,,,,,,,,,,,,,,157.58091220000642,None,157.58091220000642,None,157.08058139999048,None,f,0.40172640001401305,157.58091220000642,None,,,,,,,,,,,,,,,,,,,,,,,o,001,2021_Jul_08_1436,toilet,2021.1.3,99.90459111008592,
0,0,4,-4,0.85,0,15,15,1,,,,,,,,,,,,,,,158.99187880000682,None,158.99187880000682,None,158.49155169998994,None,j,0.33481950001441874,158.99187880000682,None,,,,,,,,,,,,,,,,,,,,,,,o,001,2021_Jul_08_1436,toilet,2021.1.3,99.90459111008592,
180,0,4,-4,1.0,,,,,0,0,0,0,0,0,0,52,,,,,,,,,,,,,,,,,159.3521858000022,None,space,74.24657640000805,159.3521858000022,None,234.61317530000815,None,234.61317530000815,None,234.1128338999988,None,f,1.0334727999870665,234.61317530000815,None,,,,,,,o,001,2021_Jul_08_1436,toilet,2021.1.3,99.90459111008592,
180,0,4,-4,1.15,,,,,0,0,0,0,0,1,1,55,,,,,,,,,,,,,,,,,,,,,,,236.66457729999092,None,236.66457729999092,None,236.16430460000993,None,f,0.3740807000140194,236.66457729999092,None,,,,,,,o,001,2021_Jul_08_1436,toilet,2021.1.3,99.90459111008592,
0,0,4,-4,0.94,,,,,0,0,0,0,0,2,2,8,,,,,,,,,,,,,,,,,,,,,,,238.0555109999841,None,238.0555109999841,None,237.55517899998813,None,j,0.4069686000002548,238.0555109999841,None,,,,,,,o,001,2021_Jul_08_1436,toilet,2021.1.3,99.90459111008592,
0,180,-4,4,0.97,,,,,0,0,0,0,0,3,3,16,,,,,,,,,,,,,,,,,,,,,,,239.46646629998577,None,239.46646629998577,None,238.9661355999997,None,f,0.9801779999979772,239.46646629998577,None,,,,,,,o,001,2021_Jul_08_1436,toilet,2021.1.3,99.90459111008592,
180,0,-4,4,1.0,,,,,0,0,0,0,0,4,4,45,,,,,,,,,,,,,,,,,,,,,,,241.45781900000293,None,241.45781900000293,None,240.95747570000822,None,f,0.5727908000117168,241.45781900000293,None,,,,,,,o,001,2021_Jul_08_1436,toilet,2021.1.3,99.90459111008592,
180,180,4,-4,0.85,,,,,0,0,0,0,0,5,5,35,,,,,,,,,,,,,,,,,,,,,,,243.04889939998975,None,243.04889939998975,None,242.54859439999564,None,j,0.34164099997724406,243.04889939998975,None,,,,,,,o,001,2021_Jul_08_1436,toilet,2021.1.3,99.90459111008592,
180,180,-4,4,1.15,,,,,0,0,0,0,0,6,6,34,,,,,,,,,,,,,,,,,,,,,,,244.40986369998427,None,244.40986369998427,None,243.90956890000962,None,j,0.3247735999757424,244.40986369998427,None,,,,,,,o,001,2021_Jul_08_1436,toilet,2021.1.3,99.90459111008592,
180,180,4,-4,1.15,,,,,0,0,0,0,0,7,7,41,,,,,,,,,,,,,,,,,,,,,,,245.750733199995,None,245.750733199995,None,245.2503876000119,None,f,0.343840600020485,245.750733199995,None,,,,,,,o,001,2021_Jul_08_1436,toilet,2021.1.3,99.90459111008592,
0,0,4,-4,0.97,,,,,0,0,0,0,0,8,8,9,,,,,,,,,,,,,,,,,,,,,,,247.10165239998605,None,247.10165239998605,None,246.60133519998635,None,j,0.3369207999785431,247.10165239998605,None,,,,,,,o,001,2021_Jul_08_1436,toilet,2021.1.3,99.90459111008592,
180,0,4,-4,1.06,,,,,0,0,0,0,0,9,9,54,,,,,,,,,,,,,,,,,,,,,,,248.44255800000974,None,248.44255800000974,None,247.94221169999219,None,f,0.48402199998963624,248.44255800000974,None,,,,,,,o,001,2021_Jul_08_1436,toilet,2021.1.3,99.90459111008592,
180,0,-4,4,0.85,,,,,0,0,0,0,0,10,10,42,,,,,,,,,,,,,,,,,,,,,,,249.93356740000308,None,249.93356740000308,None,249.43323009999585,None,f,0.32103670001379214,249.93356740000308,None,,,,,,,o,001,2021_Jul_08_1436,toilet,2021.1.3,99.90459111008592,
180,0,4,-4,0.85,,,,,0,0,0,0,0,11,11,49,,,,,,,,,,,,,,,,,,,,,,,251.2645579999953,None,251.2645579999953,None,250.76421900000423,None,j,0.31808229998569004,251.2645579999953,None,,,,,,,o,001,2021_Jul_08_1436,toilet,2021.1.3,99.90459111008592,
180,180,-4,4,0.85,,,,,0,0,0,0,0,12,12,28,,,,,,,,,,,,,,,,,,,,,,,252.5853589999897,None,252.5853589999897,None,252.08504189999076,None,f,0.3251416999846697,252.5853589999897,None,,,,,,,o,001,2021_Jul_08_1436,toilet,2021.1.3,99.90459111008592,
0,180,-4,4,0.94,,,,,0,0,0,0,0,13,13,15,,,,,,,,,,,,,,,,,,,,,,,253.91626259998884,None,253.91626259998884,None,253.41590839999844,None,j,0.3382479999854695,253.91626259998884,None,,,,,,,o,001,2021_Jul_08_1436,toilet,2021.1.3,99.90459111008592,
0,0,-4,4,0.97,,,,,0,0,0,0,0,14,14,2,,,,,,,,,,,,,,,,,,,,,,,255.25717689999146,None,255.25717689999146,None,254.75683669999125,None,f,0.5174779000226408,255.25717689999146,None,,,,,,,o,001,2021_Jul_08_1436,toilet,2021.1.3,99.90459111008592,
0,180,-4,4,1.0,,,,,0,0,0,0,0,15,15,17,,,,,,,,,,,,,,,,,,,,,,,256.78821920001064,None,256.78821920001064,None,256.2878780000028,None,j,0.3623684000049252,256.78821920001064,None,,,,,,,o,001,2021_Jul_08_1436,toilet,2021.1.3,99.90459111008592,
180,180,-4,4,1.0,,,,,0,0,0,0,0,16,16,31,,,,,,,,,,,,,,,,,,,,,,,258.15921799998614,None,258.15921799998614,None,257.6588028999977,None,f,0.49524509999901056,258.15921799998614,None,,,,,,,o,001,2021_Jul_08_1436,toilet,2021.1.3,99.90459111008592,
180,180,4,-4,1.0,,,,,0,0,0,0,0,17,17,38,,,,,,,,,,,,,,,,,,,,,,,259.6601588999911,None,259.6601588999911,None,259.159914799995,None,f,0.4662948999903165,259.6601588999911,None,,,,,,,o,001,2021_Jul_08_1436,toilet,2021.1.3,99.90459111008592,
0,0,-4,4,1.03,,,,,0,0,0,0,0,18,18,4,,,,,,,,,,,,,,,,,,,,,,,261.13115450000623,None,261.13115450000623,None,260.6308152000129,None,j,0.3554749999893829,261.13115450000623,None,,,,,,,o,001,2021_Jul_08_1436,toilet,2021.1.3,99.90459111008592,
0,0,4,-4,1.06,,,,,0,0,0,0,0,19,19,12,,,,,,,,,,,,,,,,,,,,,,,262.49208590001217,None,262.49208590001217,None,261.9917489000072,None,f,0.3706528999900911,262.49208590001217,None,,,,,,,o,001,2021_Jul_08_1436,toilet,2021.1.3,99.90459111008592,
180,180,4,-4,1.06,,,,,0,0,0,0,0,20,20,40,,,,,,,,,,,,,,,,,,,,,,,263.8730205000029,None,263.8730205000029,None,263.37268010000116,None,f,0.3494854000164196,263.8730205000029,None,,,,,,,o,001,2021_Jul_08_1436,toilet,2021.1.3,99.90459111008592,
180,0,-4,4,0.97,,,,,0,0,0,0,0,21,21,44,,,,,,,,,,,,,,,,,,,,,,,265.2240218000079,None,265.2240218000079,None,264.72359939999296,None,f,0.9505525999993552,265.2240218000079,None,,,,,,,o,001,2021_Jul_08_1436,toilet,2021.1.3,99.90459111008592,
180,0,4,-4,0.94,,,,,0,0,0,0,0,22,22,50,,,,,,,,,,,,,,,,,,,,,,,267.18526289999136,None,267.18526289999136,None,266.68501009998727,None,j,0.3654812999884598,267.18526289999136,None,,,,,,,o,001,2021_Jul_08_1436,toilet,2021.1.3,99.90459111008592,
180,180,-4,4,1.06,,,,,0,0,0,0,0,23,23,33,,,,,,,,,,,,,,,,,,,,,,,268.55620089999866,None,268.55620089999866,None,268.0558517999889,None,j,0.5622883000178263,268.55620089999866,None,,,,,,,o,001,2021_Jul_08_1436,toilet,2021.1.3,99.90459111008592,
0,0,-4,4,0.85,,,,,0,0,0,0,0,24,24,0,,,,,,,,,,,,,,,,,,,,,,,270.1272612999892,None,270.1272612999892,None,269.6269342000014,None,f,0.7352298999903724,270.1272612999892,None,,,,,,,o,001,2021_Jul_08_1436,toilet,2021.1.3,99.90459111008592,
0,180,-4,4,1.15,,,,,0,0,0,0,0,25,25,20,,,,,,,,,,,,,,,,,,,,,,,271.8684446999978,None,271.8684446999978,None,271.3681041999953,None,j,0.37019060002057813,271.8684446999978,None,,,,,,,o,001,2021_Jul_08_1436,toilet,2021.1.3,99.90459111008592,
0,0,-4,4,1.15,,,,,0,0,0,0,0,26,26,6,,,,,,,,,,,,,,,,,,,,,,,273.2394498999929,None,273.2394498999929,None,272.7490480999986,None,j,0.45517269999254495,273.2394498999929,None,,,,,,,o,001,2021_Jul_08_1436,toilet,2021.1.3,99.90459111008592,
0,180,4,-4,1.03,,,,,0,0,0,0,0,27,27,25,,,,,,,,,,,,,,,,,,,,,,,274.71036950001144,None,274.71036950001144,None,274.2100713000109,None,f,0.2960783999878913,274.71036950001144,None,,,,,,,o,001,2021_Jul_08_1436,toilet,2021.1.3,99.90459111008592,
180,180,4,-4,0.97,,,,,0,0,0,0,0,28,28,37,,,,,,,,,,,,,,,,,,,,,,,276.01125599999796,None,276.01125599999796,None,275.51091370001086,None,j,0.6751993000216316,276.01125599999796,None,,,,,,,o,001,2021_Jul_08_1436,toilet,2021.1.3,99.90459111008592,
0,0,-4,4,1.06,,,,,0,0,0,0,0,29,29,5,,,,,,,,,,,,,,,,,,,,,,,277.6923978999839,None,277.6923978999839,None,277.1920538000122,None,j,0.3542239999806043,277.6923978999839,None,,,,,,,o,001,2021_Jul_08_1436,toilet,2021.1.3,99.90459111008592,
0,0,4,-4,1.03,,,,,0,0,0,0,0,30,30,11,,,,,,,,,,,,,,,,,,,,,,,279.0633225000056,None,279.0633225000056,None,278.5629870000121,None,f,0.3434703999955673,279.0633225000056,None,,,,,,,o,001,2021_Jul_08_1436,toilet,2021.1.3,99.90459111008592,
0,180,4,-4,1.15,,,,,0,0,0,0,0,31,31,27,,,,,,,,,,,,,,,,,,,,,,,280.4343590000062,None,280.4343590000062,None,279.9339183999982,None,f,0.33226660001673736,280.4343590000062,None,,,,,,,o,001,2021_Jul_08_1436,toilet,2021.1.3,99.90459111008592,
180,180,4,-4,1.03,,,,,0,0,0,0,0,32,32,39,,,,,,,,,,,,,,,,,,,,,,,281.7851742999919,None,281.7851742999919,None,281.2849134999851,None,f,0.4052951000048779,281.7851742999919,None,,,,,,,o,001,2021_Jul_08_1436,toilet,2021.1.3,99.90459111008592,
0,180,-4,4,1.06,,,,,0,0,0,0,0,33,33,19,,,,,,,,,,,,,,,,,,,,,,,283.1961258999945,None,283.1961258999945,None,282.69578770000953,None,j,0.3544477000250481,283.1961258999945,None,,,,,,,o,001,2021_Jul_08_1436,toilet,2021.1.3,99.90459111008592,
0,180,4,-4,1.0,,,,,0,0,0,0,0,34,34,24,,,,,,,,,,,,,,,,,,,,,,,284.55704879999394,None,284.55704879999394,None,284.05671189998975,None,f,0.9456084000121336,284.55704879999394,None,,,,,,,o,001,2021_Jul_08_1436,toilet,2021.1.3,99.90459111008592,
180,180,-4,4,0.94,,,,,0,0,0,0,0,35,35,29,,,,,,,,,,,,,,,,,,,,,,,286.5083744000003,None,286.5083744000003,None,286.0080317000102,None,f,0.4181259000033606,286.5083744000003,None,,,,,,,o,001,2021_Jul_08_1436,toilet,2021.1.3,99.90459111008592,
180,0,-4,4,0.94,,,,,0,0,0,0,0,36,36,43,,,,,,,,,,,,,,,,,,,,,,,287.9394142999954,None,287.9394142999954,None,287.43907839999883,None,f,0.39533769999979995,287.9394142999954,None,,,,,,,o,001,2021_Jul_08_1436,toilet,2021.1.3,99.90459111008592,
180,0,-4,4,1.06,,,,,0,0,0,0,0,37,37,47,,,,,,,,,,,,,,,,,,,,,,,289.3502995999879,None,289.3502995999879,None,288.84996679998585,None,j,1.6723525999987032,289.3502995999879,None,,,,,,,o,001,2021_Jul_08_1436,toilet,2021.1.3,99.90459111008592,
180,0,4,-4,1.03,,,,,0,0,0,0,0,38,38,53,,,,,,,,,,,,,,,,,,,,,,,292.0421326000069,None,292.0421326000069,None,291.5417865999916,None,f,0.6283895999949891,292.0421326000069,None,,,,,,,o,001,2021_Jul_08_1436,toilet,2021.1.3,99.90459111008592,
0,0,-4,4,1.0,,,,,0,0,0,0,0,39,39,3,,,,,,,,,,,,,,,,,,,,,,,293.67323290000786,None,293.67323290000786,None,293.1728950999968,None,j,0.42131800000788644,293.67323290000786,None,,,,,,,o,001,2021_Jul_08_1436,toilet,2021.1.3,99.90459111008592,
180,0,-4,4,1.03,,,,,0,0,0,0,0,40,40,46,,,,,,,,,,,,,,,,,,,,,,,295.1042082000058,None,295.1042082000058,None,294.60395789999166,None,j,1.1824099000077695,295.1042082000058,None,,,,,,,o,001,2021_Jul_08_1436,toilet,2021.1.3,99.90459111008592,
180,180,4,-4,0.94,,,,,0,0,0,0,0,41,41,36,,,,,,,,,,,,,,,,,,,,,,,297.2956986000063,None,297.2956986000063,None,296.795352599991,None,j,0.44677569999475963,297.2956986000063,None,,,,,,,o,001,2021_Jul_08_1436,toilet,2021.1.3,99.90459111008592,
180,180,-4,4,0.97,,,,,0,0,0,0,0,42,42,30,,,,,,,,,,,,,,,,,,,,,,,298.74667679998674,None,298.74667679998674,None,298.2463415999955,None,f,0.4360787999758031,298.74667679998674,None,,,,,,,o,001,2021_Jul_08_1436,toilet,2021.1.3,99.90459111008592,
0,180,4,-4,1.06,,,,,0,0,0,0,0,43,43,26,,,,,,,,,,,,,,,,,,,,,,,300.197659700003,None,300.197659700003,None,299.6973231000011,None,f,0.4888916999916546,300.197659700003,None,,,,,,,o,001,2021_Jul_08_1436,toilet,2021.1.3,99.90459111008592,
0,180,4,-4,0.94,,,,,0,0,0,0,0,44,44,22,,,,,,,,,,,,,,,,,,,,,,,301.6986823999905,None,301.6986823999905,None,301.19833660000586,None,j,0.6518386000243481,301.6986823999905,None,,,,,,,o,001,2021_Jul_08_1436,toilet,2021.1.3,99.90459111008592,
0,180,-4,4,0.85,,,,,0,0,0,0,0,45,45,14,,,,,,,,,,,,,,,,,,,,,,,303.3699030999851,None,303.3699030999851,None,302.86955159998615,None,f,0.43652960000326857,303.3699030999851,None,,,,,,,o,001,2021_Jul_08_1436,toilet,2021.1.3,99.90459111008592,
0,180,-4,4,1.03,,,,,0,0,0,0,0,46,46,18,,,,,,,,,,,,,,,,,,,,,,,304.81078480000724,None,304.81078480000724,None,304.31044840000686,None,j,0.5956945999932941,304.81078480000724,None,,,,,,,o,001,2021_Jul_08_1436,toilet,2021.1.3,99.90459111008592,
0,0,4,-4,1.0,,,,,0,0,0,0,0,47,47,10,,,,,,,,,,,,,,,,,,,,,,,306.41190460001235,None,306.41190460001235,None,305.9115396999987,None,f,0.5467586999875493,306.41190460001235,None,,,,,,,o,001,2021_Jul_08_1436,toilet,2021.1.3,99.90459111008592,
0,0,4,-4,0.85,,,,,0,0,0,0,0,48,48,7,,,,,,,,,,,,,,,,,,,,,,,307.97293729998637,None,307.97293729998637,None,307.4725949999993,None,j,0.37753249998786487,307.97293729998637,None,,,,,,,o,001,2021_Jul_08_1436,toilet,2021.1.3,99.90459111008592,
180,0,-4,4,1.15,,,,,0,0,0,0,0,49,49,48,,,,,,,,,,,,,,,,,,,,,,,309.35396030000993,None,309.35396030000993,None,308.85355040000286,None,j,0.3885720999969635,309.35396030000993,None,,,,,,,o,001,2021_Jul_08_1436,toilet,2021.1.3,99.90459111008592,
180,0,4,-4,0.97,,,,,0,0,0,0,0,50,50,51,,,,,,,,,,,,,,,,,,,,,,,310.7549130000116,None,310.7549130000116,None,310.2544864999945,None,j,0.5075595999951474,310.7549130000116,None,,,,,,,o,001,2021_Jul_08_1436,toilet,2021.1.3,99.90459111008592,
0,180,4,-4,0.85,,,,,0,0,0,0,0,51,51,21,,,,,,,,,,,,,,,,,,,,,,,312.2658427999995,None,312.2658427999995,None,311.76550559999305,None,j,0.3727018999925349,312.2658427999995,None,,,,,,,o,001,2021_Jul_08_1436,toilet,2021.1.3,99.90459111008592,
0,0,-4,4,0.94,,,,,0,0,0,0,0,52,52,1,,,,,,,,,,,,,,,,,,,,,,,313.64678069998627,None,313.64678069998627,None,313.1464416999952,None,f,0.3837004999804776,313.64678069998627,None,,,,,,,o,001,2021_Jul_08_1436,toilet,2021.1.3,99.90459111008592,
0,180,4,-4,0.97,,,,,0,0,0,0,0,53,53,23,,,,,,,,,,,,,,,,,,,,,,,315.04773130000103,None,315.04773130000103,None,314.54739210000844,None,j,0.4228446999914013,315.04773130000103,None,,,,,,,o,001,2021_Jul_08_1436,toilet,2021.1.3,99.90459111008592,
0,0,4,-4,1.15,,,,,0,0,0,0,0,54,54,13,,,,,,,,,,,,,,,,,,,,,,,316.48880560000543,None,316.48880560000543,None,315.9883728999994,None,f,0.357727700000396,316.48880560000543,None,,,,,,,o,001,2021_Jul_08_1436,toilet,2021.1.3,99.90459111008592,
180,180,-4,4,1.03,,,,,0,0,0,0,0,55,55,32,,,,,,,,,,,,,,,,,,,,,,,317.85971349998727,None,317.85971349998727,None,317.3592989000026,None,j,0.3307855000020936,317.85971349998727,None,,,,,,,o,001,2021_Jul_08_1436,toilet,2021.1.3,99.90459111008592,
0,180,4,-4,1.15,,,,,0,0,0,0,1,0,56,27,,,,,,,,,,,,,,,,,,,,,,,319.200551499991,None,319.200551499991,None,318.70020409999415,None,f,0.509924600017257,319.200551499991,None,,,,,,,o,001,2021_Jul_08_1436,toilet,2021.1.3,99.90459111008592,
0,0,4,-4,0.97,,,,,0,0,0,0,1,1,57,9,,,,,,,,,,,,,,,,,,,,,,,320.7115735000116,None,320.7115735000116,None,320.21126370001,None,j,0.3110045999928843,320.7115735000116,None,,,,,,,o,001,2021_Jul_08_1436,toilet,2021.1.3,99.90459111008592,
0,0,-4,4,1.15,,,,,0,0,0,0,1,2,58,6,,,,,,,,,,,,,,,,,,,,,,,322.0324687999964,None,322.0324687999964,None,321.53213269999833,None,j,0.33414790002279915,322.0324687999964,None,,,,,,,o,001,2021_Jul_08_1436,toilet,2021.1.3,99.90459111008592,
0,180,4,-4,1.06,,,,,0,0,0,0,1,3,59,26,,,,,,,,,,,,,,,,,,,,,,,323.38346310000634,None,323.38346310000634,None,322.88304759998573,None,f,0.2952093000058085,323.38346310000634,None,,,,,,,o,001,2021_Jul_08_1436,toilet,2021.1.3,99.90459111008592,
0,180,-4,4,0.85,,,,,0,0,0,0,1,4,60,14,,,,,,,,,,,,,,,,,,,,,,,324.6943769000063,None,324.6943769000063,None,324.19393599999603,None,j,0.29635240000789054,324.6943769000063,None,,,,,,,o,001,2021_Jul_08_1436,toilet,2021.1.3,99.90459111008592,
180,0,4,-4,0.85,,,,,0,0,0,0,1,5,61,49,,,,,,,,,,,,,,,,,,,,,,,326.00516480000806,None,326.00516480000806,None,325.50490319999517,None,j,0.3134591999987606,326.00516480000806,None,,,,,,,o,001,2021_Jul_08_1436,toilet,2021.1.3,99.90459111008592,
180,0,-4,4,1.06,,,,,0,0,0,0,1,6,62,47,,,,,,,,,,,,,,,,,,,,,,,327.3260585000098,None,327.3260585000098,None,326.82572849999997,None,j,0.43251720000989735,327.3260585000098,None,,,,,,,o,001,2021_Jul_08_1436,toilet,2021.1.3,99.90459111008592,
180,180,4,-4,1.06,,,,,0,0,0,0,1,7,63,40,,,,,,,,,,,,,,,,,,,,,,,328.7670444000105,None,328.7670444000105,None,328.26672939999844,None,f,0.41566769999917597,328.7670444000105,None,,,,,,,o,001,2021_Jul_08_1436,toilet,2021.1.3,99.90459111008592,
180,180,-4,4,1.0,,,,,0,0,0,0,1,8,64,31,,,,,,,,,,,,,,,,,,,,,,,330.19801059999736,None,330.19801059999736,None,329.6976696999918,None,j,0.3444737000099849,330.19801059999736,None,,,,,,,o,001,2021_Jul_08_1436,toilet,2021.1.3,99.90459111008592,
180,0,4,-4,1.0,,,,,0,0,0,0,1,9,65,52,,,,,,,,,,,,,,,,,,,,,,,331.54898580000736,None,331.54898580000736,None,331.0485853999853,None,j,0.3856060999969486,331.54898580000736,None,,,,,,,o,001,2021_Jul_08_1436,toilet,2021.1.3,99.90459111008592,
180,180,-4,4,0.97,,,,,0,0,0,0,1,10,66,30,,,,,,,,,,,,,,,,,,,,,,,332.94990939999116,None,332.94990939999116,None,332.44962719999603,None,f,0.4565731000038795,332.94990939999116,None,,,,,,,o,001,2021_Jul_08_1436,toilet,2021.1.3,99.90459111008592,
180,0,-4,4,0.94,,,,,0,0,0,0,1,11,67,43,,,,,,,,,,,,,,,,,,,,,,,334.41086629999336,None,334.41086629999336,None,333.91052639999543,None,f,0.40368990000570193,334.41086629999336,None,,,,,,,o,001,2021_Jul_08_1436,toilet,2021.1.3,99.90459111008592,
0,180,-4,4,1.0,,,,,0,0,0,0,1,12,68,17,,,,,,,,,,,,,,,,,,,,,,,335.82179570000153,None,335.82179570000153,None,335.32148829998914,None,j,1.3766770999936853,335.82179570000153,None,,,,,,,o,001,2021_Jul_08_1436,toilet,2021.1.3,99.90459111008592,
180,0,4,-4,1.03,,,,,0,0,0,0,1,13,69,53,,,,,,,,,,,,,,,,,,,,,,,338.20344000001205,None,338.20344000001205,None,337.7031042999879,None,f,0.5152711999835446,338.20344000001205,None,,,,,,,o,001,2021_Jul_08_1436,toilet,2021.1.3,99.90459111008592,
0,180,4,-4,0.97,,,,,0,0,0,0,1,14,70,23,,,,,,,,,,,,,,,,,,,,,,,339.73457359999884,None,339.73457359999884,None,339.23423149998416,None,f,0.4240132000122685,339.73457359999884,None,,,,,,,o,001,2021_Jul_08_1436,toilet,2021.1.3,99.90459111008592,
0,180,4,-4,1.03,,,,,0,0,0,0,1,15,71,25,,,,,,,,,,,,,,,,,,,,,,,341.1754437999916,None,341.1754437999916,None,340.6751525999862,None,f,0.6790229999751318,341.1754437999916,None,,,,,,,o,001,2021_Jul_08_1436,toilet,2021.1.3,99.90459111008592,
0,0,-4,4,0.97,,,,,0,0,0,0,1,16,72,2,,,,,,,,,,,,,,,,,,,,,,,342.85659300000407,None,342.85659300000407,None,342.35626110000885,None,f,0.6299596000171732,342.85659300000407,None,,,,,,,o,001,2021_Jul_08_1436,toilet,2021.1.3,99.90459111008592,
180,0,-4,4,1.0,,,,,0,0,0,0,1,17,73,45,,,,,,,,,,,,,,,,,,,,,,,344.497715400008,None,344.497715400008,None,343.99737100000493,None,f,1.3888089999963995,344.497715400008,None,,,,,,,o,001,2021_Jul_08_1436,toilet,2021.1.3,99.90459111008592,
0,0,4,-4,1.0,,,,,0,0,0,0,1,18,74,10,,,,,,,,,,,,,,,,,,,,,,,346.89935429999605,None,346.89935429999605,None,346.3990911000001,None,f,1.0033062000002246,346.89935429999605,None,,,,,,,o,001,2021_Jul_08_1436,toilet,2021.1.3,99.90459111008592,
180,0,-4,4,0.85,,,,,0,0,0,0,1,19,75,42,,,,,,,,,,,,,,,,,,,,,,,348.92071010000654,None,348.92071010000654,None,348.4203656000027,None,f,0.43773539998801425,348.92071010000654,None,,,,,,,o,001,2021_Jul_08_1436,toilet,2021.1.3,99.90459111008592,
180,180,4,-4,1.03,,,,,0,0,0,0,1,20,76,39,,,,,,,,,,,,,,,,,,,,,,,350.36169150000205,None,350.36169150000205,None,349.8613493999874,None,f,0.40476490001310594,350.36169150000205,None,,,,,,,o,001,2021_Jul_08_1436,toilet,2021.1.3,99.90459111008592,
180,180,4,-4,0.97,,,,,0,0,0,0,1,21,77,37,,,,,,,,,,,,,,,,,,,,,,,351.77264380001,None,351.77264380001,None,351.2723021999991,None,j,0.514062100002775,351.77264380001,None,,,,,,,o,001,2021_Jul_08_1436,toilet,2021.1.3,99.90459111008592,
180,0,4,-4,0.94,,,,,0,0,0,0,1,22,78,50,,,,,,,,,,,,,,,,,,,,,,,353.3036947000073,None,353.3036947000073,None,352.8033381999994,None,j,0.40673730001435615,353.3036947000073,None,,,,,,,o,001,2021_Jul_08_1436,toilet,2021.1.3,99.90459111008592,
0,180,-4,4,0.97,,,,,0,0,0,0,1,23,79,16,,,,,,,,,,,,,,,,,,,,,,,354.7147161999892,None,354.7147161999892,None,354.2143798999896,None,f,0.6438772999972571,354.7147161999892,None,,,,,,,o,001,2021_Jul_08_1436,toilet,2021.1.3,99.90459111008592,
0,0,4,-4,1.06,,,,,0,0,0,0,1,24,80,12,,,,,,,,,,,,,,,,,,,,,,,356.3657572999946,None,356.3657572999946,None,355.86541639998904,None,f,0.3847047000017483,356.3657572999946,None,,,,,,,o,001,2021_Jul_08_1436,toilet,2021.1.3,99.90459111008592,
180,0,-4,4,1.03,,,,,0,0,0,0,1,25,81,46,,,,,,,,,,,,,,,,,,,,,,,357.7567049000063,None,357.7567049000063,None,357.25636480000685,None,j,0.4019130000087898,357.7567049000063,None,,,,,,,o,001,2021_Jul_08_1436,toilet,2021.1.3,99.90459111008592,
0,180,-4,4,0.94,,,,,0,0,0,0,1,26,82,15,,,,,,,,,,,,,,,,,,,,,,,359.1676608000125,None,359.1676608000125,None,358.6673477999866,None,f,0.44703019998269156,359.1676608000125,None,,,,,,,o,001,2021_Jul_08_1436,toilet,2021.1.3,99.90459111008592,
0,180,-4,4,1.15,,,,,0,0,0,0,1,27,83,20,,,,,,,,,,,,,,,,,,,,,,,360.6386576000077,None,360.6386576000077,None,360.13831310000387,None,j,0.3838575999834575,360.6386576000077,None,,,,,,,o,001,2021_Jul_08_1436,toilet,2021.1.3,99.90459111008592,
180,180,-4,4,1.06,,,,,0,0,0,0,1,28,84,33,,,,,,,,,,,,,,,,,,,,,,,362.039694600011,None,362.039694600011,None,361.5393411999976,None,j,0.5028397999994922,362.039694600011,None,,,,,,,o,001,2021_Jul_08_1436,toilet,2021.1.3,99.90459111008592,
0,0,4,-4,0.85,,,,,0,0,0,0,1,29,85,7,,,,,,,,,,,,,,,,,,,,,,,363.5506275999942,None,363.5506275999942,None,363.05027790000895,None,j,0.3358289000170771,363.5506275999942,None,,,,,,,o,001,2021_Jul_08_1436,toilet,2021.1.3,99.90459111008592,
0,0,-4,4,1.06,,,,,0,0,0,0,1,30,86,5,,,,,,,,,,,,,,,,,,,,,,,364.8915405999869,None,364.8915405999869,None,364.39120109999203,None,f,0.8350573999923654,364.8915405999869,None,,,,,,,o,001,2021_Jul_08_1436,toilet,2021.1.3,99.90459111008592,
180,180,-4,4,0.94,,,,,0,0,0,0,1,31,87,29,,,,,,,,,,,,,,,,,,,,,,,366.74280079998425,None,366.74280079998425,None,366.2424566000118,None,f,0.40765619999729097,366.74280079998425,None,,,,,,,o,001,2021_Jul_08_1436,toilet,2021.1.3,99.90459111008592,
180,180,4,-4,0.94,,,,,0,0,0,0,1,32,88,36,,,,,,,,,,,,,,,,,,,,,,,368.16383959999075,None,368.16383959999075,None,367.66341239999747,None,j,0.3946437999838963,368.16383959999075,None,,,,,,,o,001,2021_Jul_08_1436,toilet,2021.1.3,99.90459111008592,
180,0,-4,4,1.15,,,,,0,0,0,0,1,33,89,48,,,,,,,,,,,,,,,,,,,,,,,369.5648031999881,None,369.5648031999881,None,369.06446669998695,None,j,0.3217141999921296,369.5648031999881,None,,,,,,,o,001,2021_Jul_08_1436,toilet,2021.1.3,99.90459111008592,
0,0,4,-4,0.94,,,,,0,0,0,0,1,34,90,8,,,,,,,,,,,,,,,,,,,,,,,370.8956169000012,None,370.8956169000012,None,370.3952721999958,None,j,0.39884629999869503,370.8956169000012,None,,,,,,,o,001,2021_Jul_08_1436,toilet,2021.1.3,99.90459111008592,
0,0,-4,4,1.03,,,,,0,0,0,0,1,35,91,4,,,,,,,,,,,,,,,,,,,,,,,372.29655969998566,None,372.29655969998566,None,371.79621949998545,None,j,0.38996549998410046,372.29655969998566,None,,,,,,,o,001,2021_Jul_08_1436,toilet,2021.1.3,99.90459111008592,
0,0,4,-4,1.03,,,,,0,0,0,0,1,36,92,11,,,,,,,,,,,,,,,,,,,,,,,373.69753869998385,None,373.69753869998385,None,373.1971732999955,None,j,0.36506089998874813,373.69753869998385,None,,,,,,,o,001,2021_Jul_08_1436,toilet,2021.1.3,99.90459111008592,
0,0,-4,4,1.0,,,,,0,0,0,0,1,37,93,3,,,,,,,,,,,,,,,,,,,,,,,375.0785262999998,None,375.0785262999998,None,374.578100099985,None,j,0.43994959999690764,375.0785262999998,None,,,,,,,o,001,2021_Jul_08_1436,toilet,2021.1.3,99.90459111008592,
180,180,4,-4,0.85,,,,,0,0,0,0,1,38,94,35,,,,,,,,,,,,,,,,,,,,,,,376.51952589998837,None,376.51952589998837,None,376.01915879998705,None,j,0.3271076999953948,376.51952589998837,None,,,,,,,o,001,2021_Jul_08_1436,toilet,2021.1.3,99.90459111008592,
0,180,4,-4,0.94,,,,,0,0,0,0,1,39,95,22,,,,,,,,,,,,,,,,,,,,,,,377.86033269998734,None,377.86033269998734,None,377.36001470001065,None,j,0.714064799976768,377.86033269998734,None,,,,,,,o,001,2021_Jul_08_1436,toilet,2021.1.3,99.90459111008592,
0,180,4,-4,0.85,,,,,0,0,0,0,1,40,96,21,,,,,,,,,,,,,,,,,,,,,,,379.58149989999947,None,379.58149989999947,None,379.08117190000485,None,j,0.3529961000022013,379.58149989999947,None,,,,,,,o,001,2021_Jul_08_1436,toilet,2021.1.3,99.90459111008592,
0,0,-4,4,0.94,,,,,0,0,0,0,1,41,97,1,,,,,,,,,,,,,,,,,,,,,,,380.9424233000027,None,380.9424233000027,None,380.4420851999894,None,f,0.44806250001420267,380.9424233000027,None,,,,,,,o,001,2021_Jul_08_1436,toilet,2021.1.3,99.90459111008592,
0,180,-4,4,1.06,,,,,0,0,0,0,1,42,98,19,,,,,,,,,,,,,,,,,,,,,,,382.3934098999889,None,382.3934098999889,None,381.8930676000018,None,j,0.37317439998150803,382.3934098999889,None,,,,,,,o,001,2021_Jul_08_1436,toilet,2021.1.3,99.90459111008592,
180,180,4,-4,1.15,,,,,0,0,0,0,1,43,99,41,,,,,,,,,,,,,,,,,,,,,,,383.78443609998794,None,383.78443609998794,None,383.2840151999844,None,f,0.32616279998910613,383.78443609998794,None,,,,,,,o,001,2021_Jul_08_1436,toilet,2021.1.3,99.90459111008592,
180,0,-4,4,0.97,,,,,0,0,0,0,1,44,100,44,,,,,,,,,,,,,,,,,,,,,,,385.12526269999216,None,385.12526269999216,None,384.6249639999878,None,f,0.9691825000045355,385.12526269999216,None,,,,,,,o,001,2021_Jul_08_1436,toilet,2021.1.3,99.90459111008592,
0,0,-4,4,0.85,,,,,0,0,0,0,1,45,101,0,,,,,,,,,,,,,,,,,,,,,,,387.096621100005,None,387.096621100005,None,386.5962598999904,None,f,0.42180650000227615,387.096621100005,None,,,,,,,o,001,2021_Jul_08_1436,toilet,2021.1.3,99.90459111008592,
180,180,-4,4,1.15,,,,,0,0,0,0,1,46,102,34,,,,,,,,,,,,,,,,,,,,,,,388.5275777000061,None,388.5275777000061,None,388.02723030000925,None,j,0.334925100003602,388.5275777000061,None,,,,,,,o,001,2021_Jul_08_1436,toilet,2021.1.3,99.90459111008592,
180,180,-4,4,1.03,,,,,0,0,0,0,1,47,103,32,,,,,,,,,,,,,,,,,,,,,,,389.87848620000295,None,389.87848620000295,None,389.378146300005,None,j,0.5679120999993756,389.87848620000295,None,,,,,,,o,001,2021_Jul_08_1436,toilet,2021.1.3,99.90459111008592,
0,0,4,-4,1.15,,,,,0,0,0,0,1,48,104,13,,,,,,,,,,,,,,,,,,,,,,,391.44964060001075,None,391.44964060001075,None,390.9493067000003,None,f,0.34093619999475777,391.44964060001075,None,,,,,,,o,001,2021_Jul_08_1436,toilet,2021.1.3,99.90459111008592,
180,180,-4,4,0.85,,,,,0,0,0,0,1,49,105,28,,,,,,,,,,,,,,,,,,,,,,,392.8004653000098,None,392.8004653000098,None,392.3001304999925,None,f,0.36597049998817965,392.8004653000098,None,,,,,,,o,001,2021_Jul_08_1436,toilet,2021.1.3,99.90459111008592,
180,0,4,-4,1.06,,,,,0,0,0,0,1,50,106,54,,,,,,,,,,,,,,,,,,,,,,,394.17140870000003,None,394.17140870000003,None,393.67105649999576,None,f,0.7390186999982689,394.17140870000003,None,,,,,,,o,001,2021_Jul_08_1436,toilet,2021.1.3,99.90459111008592,
0,180,4,-4,1.0,,,,,0,0,0,0,1,51,107,24,,,,,,,,,,,,,,,,,,,,,,,395.9125783999916,None,395.9125783999916,None,395.4122408000112,None,f,0.9818473000195809,395.9125783999916,None,,,,,,,o,001,2021_Jul_08_1436,toilet,2021.1.3,99.90459111008592,
180,0,4,-4,1.15,,,,,0,0,0,0,1,52,108,55,,,,,,,,,,,,,,,,,,,,,,,397.8939532999939,None,397.8939532999939,None,397.3935768000083,None,f,0.4246397000097204,397.8939532999939,None,,,,,,,o,001,2021_Jul_08_1436,toilet,2021.1.3,99.90459111008592,
0,180,-4,4,1.03,,,,,0,0,0,0,1,53,109,18,,,,,,,,,,,,,,,,,,,,,,,399.3249308000086,None,399.3249308000086,None,398.8246211000078,None,j,1.1535735000215936,399.3249308000086,None,,,,,,,o,001,2021_Jul_08_1436,toilet,2021.1.3,99.90459111008592,
180,180,4,-4,1.0,,,,,0,0,0,0,1,54,110,38,,,,,,,,,,,,,,,,,,,,,,,401.4863616999937,None,401.4863616999937,None,400.98602350000874,None,j,0.4482208000263199,401.4863616999937,None,,,,,,,o,001,2021_Jul_08_1436,toilet,2021.1.3,99.90459111008592,
180,0,4,-4,0.97,,,,,0,0,0,0,1,55,111,51,,,,,,,,,,,,,,,,,,,,,,,402.94734720001,None,402.94734720001,None,402.4470094999997,None,j,0.3792066999885719,402.94734720001,None,,,,,,,o,001,2021_Jul_08_1436,toilet,2021.1.3,99.90459111008592,
,,,,,,,,,0,0,0,0,,,,,,,,,,,,,,,,,,,,,,,,,,,,,,,,,,,,,403.34765919999336,None,space,4.938754400005564,403.34765919999336,None,o,001,2021_Jul_08_1436,toilet,2021.1.3,99.90459111008592,
0,0,4,-4,1.06,,,,,1,0,1,0,0,0,0,12,,,,,,,,,,,,,,,,,408.30098659999203,None,space,1.585533299978124,408.30098659999203,None,410.9027447999979,None,410.9027447999979,None,410.4024036999908,None,f,0.5517821000248659,410.9027447999979,None,,,,,,,o,001,2021_Jul_08_1436,toilet,2021.1.3,99.90459111008592,
180,180,4,-4,0.97,,,,,1,0,1,0,0,1,1,37,,,,,,,,,,,,,,,,,,,,,,,412.47388999999384,None,412.47388999999384,None,411.97349899998517,None,j,0.40466959998593666,412.47388999999384,None,,,,,,,o,001,2021_Jul_08_1436,toilet,2021.1.3,99.90459111008592,
180,180,4,-4,1.06,,,,,1,0,1,0,0,2,2,40,,,,,,,,,,,,,,,,,,,,,,,413.89486380000017,None,413.89486380000017,None,413.3944365000061,None,f,0.37571480000042357,413.89486380000017,None,,,,,,,o,001,2021_Jul_08_1436,toilet,2021.1.3,99.90459111008592,
180,0,-4,4,0.97,,,,,1,0,1,0,0,3,3,44,,,,,,,,,,,,,,,,,,,,,,,415.2857205999899,None,415.2857205999899,None,414.78538169999956,None,f,0.5207425999979023,415.2857205999899,None,,,,,,,o,001,2021_Jul_08_1436,toilet,2021.1.3,99.90459111008592,
0,0,-4,4,0.97,,,,,1,0,1,0,0,4,4,2,,,,,,,,,,,,,,,,,,,,,,,416.8067497999873,None,416.8067497999873,None,416.30640949998633,None,f,1.1758409999893047,416.8067497999873,None,,,,,,,o,001,2021_Jul_08_1436,toilet,2021.1.3,99.90459111008592,
180,0,4,-4,0.97,,,,,1,0,1,0,0,5,5,51,,,,,,,,,,,,,,,,,,,,,,,418.99823850000394,None,418.99823850000394,None,418.4978970999946,None,j,0.3762681999942288,418.99823850000394,None,,,,,,,o,001,2021_Jul_08_1436,toilet,2021.1.3,99.90459111008592,
180,180,4,-4,1.03,,,,,1,0,1,0,0,6,6,39,,,,,,,,,,,,,,,,,,,,,,,420.3792664000066,None,420.3792664000066,None,419.87883420000435,None,f,0.5792598999978509,420.3792664000066,None,,,,,,,o,001,2021_Jul_08_1436,toilet,2021.1.3,99.90459111008592,
180,180,-4,4,0.97,,,,,1,0,1,0,0,7,7,30,,,,,,,,,,,,,,,,,,,,,,,421.9702524000022,None,421.9702524000022,None,421.4699445999868,None,f,0.9242604000028223,421.9702524000022,None,,,,,,,o,001,2021_Jul_08_1436,toilet,2021.1.3,99.90459111008592,
0,180,-4,4,0.85,,,,,1,0,1,0,0,8,8,14,,,,,,,,,,,,,,,,,,,,,,,423.90156180001213,None,423.90156180001213,None,423.40122359999805,None,f,0.4808805999928154,423.90156180001213,None,,,,,,,o,001,2021_Jul_08_1436,toilet,2021.1.3,99.90459111008592,
0,180,-4,4,0.94,,,,,1,0,1,0,0,9,9,15,,,,,,,,,,,,,,,,,,,,,,,425.3825691000093,None,425.3825691000093,None,424.88222249998944,None,f,0.6319429999857675,425.3825691000093,None,,,,,,,o,001,2021_Jul_08_1436,toilet,2021.1.3,99.90459111008592,
0,0,-4,4,1.0,,,,,1,0,1,0,0,10,10,3,,,,,,,,,,,,,,,,,,,,,,,427.02372070000274,None,427.02372070000274,None,426.52334089999204,None,f,0.6228830000036396,427.02372070000274,None,,,,,,,o,001,2021_Jul_08_1436,toilet,2021.1.3,99.90459111008592,
0,180,4,-4,0.85,,,,,1,0,1,0,0,11,11,21,,,,,,,,,,,,,,,,,,,,,,,428.66479529999197,None,428.66479529999197,None,428.1645230999857,None,j,0.4376153999764938,428.66479529999197,None,,,,,,,o,001,2021_Jul_08_1436,toilet,2021.1.3,99.90459111008592,
180,0,-4,4,0.94,,,,,1,0,1,0,0,12,12,43,,,,,,,,,,,,,,,,,,,,,,,430.10576740000397,None,430.10576740000397,None,429.6054291999899,None,f,0.4366485000064131,430.10576740000397,None,,,,,,,o,001,2021_Jul_08_1436,toilet,2021.1.3,99.90459111008592,
0,0,-4,4,1.06,,,,,1,0,1,0,0,13,13,5,,,,,,,,,,,,,,,,,,,,,,,431.5467476999911,None,431.5467476999911,None,431.04640349998954,None,j,0.4038109999964945,431.5467476999911,None,,,,,,,o,001,2021_Jul_08_1436,toilet,2021.1.3,99.90459111008592,
0,180,4,-4,0.94,,,,,1,0,1,0,0,14,14,22,,,,,,,,,,,,,,,,,,,,,,,432.95770349999657,None,432.95770349999657,None,432.4573528000037,None,f,1.4887990000133868,432.95770349999657,None,,,,,,,o,001,2021_Jul_08_1436,toilet,2021.1.3,99.90459111008592,
180,180,4,-4,1.15,,,,,1,0,1,0,0,15,15,41,,,,,,,,,,,,,,,,,,,,,,,435.4594853000017,None,435.4594853000017,None,434.95906759999343,None,f,0.44310820000828244,435.4594853000017,None,,,,,,,o,001,2021_Jul_08_1436,toilet,2021.1.3,99.90459111008592,
0,0,4,-4,0.85,,,,,1,0,1,0,0,16,16,7,,,,,,,,,,,,,,,,,,,,,,,436.92039240000304,None,436.92039240000304,None,436.42006380000385,None,j,0.4220244000025559,436.92039240000304,None,,,,,,,o,001,2021_Jul_08_1436,toilet,2021.1.3,99.90459111008592,
0,180,-4,4,1.0,,,,,1,0,1,0,0,17,17,17,,,,,,,,,,,,,,,,,,,,,,,438.35136440000497,None,438.35136440000497,None,437.85103479999816,None,f,0.6711193000082858,438.35136440000497,None,,,,,,,o,001,2021_Jul_08_1436,toilet,2021.1.3,99.90459111008592,
180,0,4,-4,0.94,,,,,1,0,1,0,0,18,18,50,,,,,,,,,,,,,,,,,,,,,,,440.0325034999987,None,440.0325034999987,None,439.53216060000705,None,j,0.4299905000079889,440.0325034999987,None,,,,,,,o,001,2021_Jul_08_1436,toilet,2021.1.3,99.90459111008592,
0,0,4,-4,1.15,,,,,1,0,1,0,0,19,19,13,,,,,,,,,,,,,,,,,,,,,,,441.473478800006,None,441.473478800006,None,440.973141399998,None,f,0.3810055000067223,441.473478800006,None,,,,,,,o,001,2021_Jul_08_1436,toilet,2021.1.3,99.90459111008592,
180,0,-4,4,1.03,,,,,1,0,1,0,0,20,20,46,,,,,,,,,,,,,,,,,,,,,,,442.864419599995,None,442.864419599995,None,442.36416550001013,None,j,0.7181241000071168,442.864419599995,None,,,,,,,o,001,2021_Jul_08_1436,toilet,2021.1.3,99.90459111008592,
180,180,-4,4,1.03,,,,,1,0,1,0,0,21,21,32,,,,,,,,,,,,,,,,,,,,,,,444.5955966000038,None,444.5955966000038,None,444.0952577999851,None,j,0.6988077000132762,444.5955966000038,None,,,,,,,o,001,2021_Jul_08_1436,toilet,2021.1.3,99.90459111008592,
180,180,-4,4,1.15,,,,,1,0,1,0,0,22,22,34,,,,,,,,,,,,,,,,,,,,,,,446.2967525999993,None,446.2967525999993,None,445.7964066999848,None,j,0.38969860001816414,446.2967525999993,None,,,,,,,o,001,2021_Jul_08_1436,toilet,2021.1.3,99.90459111008592,
0,180,4,-4,1.06,,,,,1,0,1,0,0,23,23,26,,,,,,,,,,,,,,,,,,,,,,,447.697702400008,None,447.697702400008,None,447.1973630999855,None,f,0.4288811000005808,447.697702400008,None,,,,,,,o,001,2021_Jul_08_1436,toilet,2021.1.3,99.90459111008592,
180,180,4,-4,0.94,,,,,1,0,1,0,0,24,24,36,,,,,,,,,,,,,,,,,,,,,,,449.1386613000068,None,449.1386613000068,None,448.63833459999296,None,j,0.507819099992048,449.1386613000068,None,,,,,,,o,001,2021_Jul_08_1436,toilet,2021.1.3,99.90459111008592,
0,180,4,-4,0.97,,,,,1,0,1,0,0,25,25,23,,,,,,,,,,,,,,,,,,,,,,,450.6597063000081,None,450.6597063000081,None,450.1594579000084,None,j,1.0828191000036895,450.6597063000081,None,,,,,,,o,001,2021_Jul_08_1436,toilet,2021.1.3,99.90459111008592,
0,0,-4,4,0.85,,,,,1,0,1,0,0,26,26,0,,,,,,,,,,,,,,,,,,,,,,,452.75112969998736,None,452.75112969998736,None,452.250784200005,None,f,0.38349929999094456,452.75112969998736,None,,,,,,,o,001,2021_Jul_08_1436,toilet,2021.1.3,99.90459111008592,
180,0,4,-4,1.03,,,,,1,0,1,0,0,27,27,53,,,,,,,,,,,,,,,,,,,,,,,454.1420758999884,None,454.1420758999884,None,453.6417336000013,None,f,0.7204346999933477,454.1420758999884,None,,,,,,,o,001,2021_Jul_08_1436,toilet,2021.1.3,99.90459111008592,
0,0,-4,4,0.94,,,,,1,0,1,0,0,28,28,1,,,,,,,,,,,,,,,,,,,,,,,455.87324310000986,None,455.87324310000986,None,455.37290320001193,None,f,0.5733528999844566,455.87324310000986,None,,,,,,,o,001,2021_Jul_08_1436,toilet,2021.1.3,99.90459111008592,
0,0,4,-4,0.97,,,,,1,0,1,0,0,29,29,9,,,,,,,,,,,,,,,,,,,,,,,457.4644168000086,None,457.4644168000086,None,456.9639989999996,None,f,0.7261391000065487,457.4644168000086,None,,,,,,,o,001,2021_Jul_08_1436,toilet,2021.1.3,99.90459111008592,
180,0,4,-4,1.0,,,,,1,0,1,0,0,30,30,52,,,,,,,,,,,,,,,,,,,,,,,459.20550569999614,None,459.20550569999614,None,458.7051654999959,None,j,0.44089420000091195,459.20550569999614,None,,,,,,,o,001,2021_Jul_08_1436,toilet,2021.1.3,99.90459111008592,
180,180,4,-4,0.85,,,,,1,0,1,0,0,31,31,35,,,,,,,,,,,,,,,,,,,,,,,460.64647979999427,None,460.64647979999427,None,460.14614450000226,None,j,0.42395319999195635,460.64647979999427,None,,,,,,,o,001,2021_Jul_08_1436,toilet,2021.1.3,99.90459111008592,
180,180,-4,4,0.94,,,,,1,0,1,0,0,32,32,29,,,,,,,,,,,,,,,,,,,,,,,462.077449000004,None,462.077449000004,None,461.5771158999996,None,f,0.4810239000071306,462.077449000004,None,,,,,,,o,001,2021_Jul_08_1436,toilet,2021.1.3,99.90459111008592,
180,0,4,-4,1.06,,,,,1,0,1,0,0,33,33,54,,,,,,,,,,,,,,,,,,,,,,,463.56846069998574,None,463.56846069998574,None,463.0681227000023,None,f,0.5579552999988664,463.56846069998574,None,,,,,,,o,001,2021_Jul_08_1436,toilet,2021.1.3,99.90459111008592,
0,0,4,-4,0.94,,,,,1,0,1,0,0,34,34,8,,,,,,,,,,,,,,,,,,,,,,,465.12966340000276,None,465.12966340000276,None,464.62925329999416,None,j,0.7248755000182427,465.12966340000276,None,,,,,,,o,001,2021_Jul_08_1436,toilet,2021.1.3,99.90459111008592,
0,0,-4,4,1.15,,,,,1,0,1,0,0,35,35,6,,,,,,,,,,,,,,,,,,,,,,,466.8707017999841,None,466.8707017999841,None,466.37036070000613,None,j,0.48769219999667257,466.8707017999841,None,,,,,,,o,001,2021_Jul_08_1436,toilet,2021.1.3,99.90459111008592,
0,0,4,-4,1.03,,,,,1,0,1,0,0,36,36,11,,,,,,,,,,,,,,,,,,,,,,,468.36171140000806,None,468.36171140000806,None,467.8613808999944,None,f,0.4207416999852285,468.36171140000806,None,,,,,,,o,001,2021_Jul_08_1436,toilet,2021.1.3,99.90459111008592,
180,180,4,-4,1.0,,,,,1,0,1,0,0,37,37,38,,,,,,,,,,,,,,,,,,,,,,,469.79268529999536,None,469.79268529999536,None,469.2923456999997,None,f,0.6217781000013929,469.79268529999536,None,,,,,,,o,001,2021_Jul_08_1436,toilet,2021.1.3,99.90459111008592,
0,180,-4,4,1.03,,,,,1,0,1,0,0,38,38,18,,,,,,,,,,,,,,,,,,,,,,,471.42387020000024,None,471.42387020000024,None,470.92345130001195,None,j,0.39861540001584217,471.42387020000024,None,,,,,,,o,001,2021_Jul_08_1436,toilet,2021.1.3,99.90459111008592,
0,180,-4,4,1.06,,,,,1,0,1,0,0,39,39,19,,,,,,,,,,,,,,,,,,,,,,,472.83483549999073,None,472.83483549999073,None,472.33441350000794,None,j,0.5555503999930806,472.83483549999073,None,,,,,,,o,001,2021_Jul_08_1436,toilet,2021.1.3,99.90459111008592,
180,0,-4,4,1.06,,,,,1,0,1,0,0,40,40,47,,,,,,,,,,,,,,,,,,,,,,,474.39580850000493,None,474.39580850000493,None,473.8954659999872,None,j,0.5306034999957774,474.39580850000493,None,,,,,,,o,001,2021_Jul_08_1436,toilet,2021.1.3,99.90459111008592,
0,180,4,-4,1.15,,,,,1,0,1,0,0,41,41,27,,,,,,,,,,,,,,,,,,,,,,,475.92684219998773,None,475.92684219998773,None,475.4265035999997,None,f,0.7117121999908704,475.92684219998773,None,,,,,,,o,001,2021_Jul_08_1436,toilet,2021.1.3,99.90459111008592,
180,0,4,-4,0.85,,,,,1,0,1,0,0,42,42,49,,,,,,,,,,,,,,,,,,,,,,,477.6480112999852,None,477.6480112999852,None,477.14767179999035,None,j,0.3824155000038445,477.6480112999852,None,,,,,,,o,001,2021_Jul_08_1436,toilet,2021.1.3,99.90459111008592,
0,180,-4,4,1.15,,,,,1,0,1,0,0,43,43,20,,,,,,,,,,,,,,,,,,,,,,,479.0489626000053,None,479.0489626000053,None,478.54869809999946,None,j,0.43749479998950846,479.0489626000053,None,,,,,,,o,001,2021_Jul_08_1436,toilet,2021.1.3,99.90459111008592,
180,0,-4,4,0.85,,,,,1,0,1,0,0,44,44,42,,,,,,,,,,,,,,,,,,,,,,,480.4999520999845,None,480.4999520999845,None,479.999696999992,None,f,0.3944828999810852,480.4999520999845,None,,,,,,,o,001,2021_Jul_08_1436,toilet,2021.1.3,99.90459111008592,
0,180,4,-4,1.03,,,,,1,0,1,0,0,45,45,25,,,,,,,,,,,,,,,,,,,,,,,481.90090280000004,None,481.90090280000004,None,481.4005524000095,None,f,0.6415224999946076,481.90090280000004,None,,,,,,,o,001,2021_Jul_08_1436,toilet,2021.1.3,99.90459111008592,
0,0,4,-4,1.0,,,,,1,0,1,0,0,46,46,10,,,,,,,,,,,,,,,,,,,,,,,483.54200849999324,None,483.54200849999324,None,483.04166749998694,None,f,0.8085311000177171,483.54200849999324,None,,,,,,,o,001,2021_Jul_08_1436,toilet,2021.1.3,99.90459111008592,
0,180,4,-4,1.0,,,,,1,0,1,0,0,47,47,24,,,,,,,,,,,,,,,,,,,,,,,485.3632416999899,None,485.3632416999899,None,484.86290569999255,None,f,1.4513827999762725,485.3632416999899,None,,,,,,,o,001,2021_Jul_08_1436,toilet,2021.1.3,99.90459111008592,
180,180,-4,4,1.06,,,,,1,0,1,0,0,48,48,33,,,,,,,,,,,,,,,,,,,,,,,487.81494660000317,None,487.81494660000317,None,487.3145674999978,None,j,0.4715414999809582,487.81494660000317,None,,,,,,,o,001,2021_Jul_08_1436,toilet,2021.1.3,99.90459111008592,
180,0,-4,4,1.0,,,,,1,0,1,0,0,49,49,45,,,,,,,,,,,,,,,,,,,,,,,489.2859008999949,None,489.2859008999949,None,488.78556769998977,None,j,0.47273010000935756,489.2859008999949,None,,,,,,,o,001,2021_Jul_08_1436,toilet,2021.1.3,99.90459111008592,
0,0,-4,4,1.03,,,,,1,0,1,0,0,50,50,4,,,,,,,,,,,,,,,,,,,,,,,490.7669016,None,490.7669016,None,490.2665660000057,None,j,0.49573850000160746,490.7669016,None,,,,,,,o,001,2021_Jul_08_1436,toilet,2021.1.3,99.90459111008592,
180,0,-4,4,1.15,,,,,1,0,1,0,0,51,51,48,,,,,,,,,,,,,,,,,,,,,,,492.27793400001246,None,492.27793400001246,None,491.7775927000039,None,j,0.37644989998079836,492.27793400001246,None,,,,,,,o,001,2021_Jul_08_1436,toilet,2021.1.3,99.90459111008592,
180,180,-4,4,0.85,,,,,1,0,1,0,0,52,52,28,,,,,,,,,,,,,,,,,,,,,,,493.65896160001284,None,493.65896160001284,None,493.1585305999906,None,f,0.467415399994934,493.65896160001284,None,,,,,,,o,001,2021_Jul_08_1436,toilet,2021.1.3,99.90459111008592,
180,180,-4,4,1.0,,,,,1,0,1,0,0,53,53,31,,,,,,,,,,,,,,,,,,,,,,,495.12990510000964,None,495.12990510000964,None,494.6296222000092,None,j,0.6604991999920458,495.12990510000964,None,,,,,,,o,001,2021_Jul_08_1436,toilet,2021.1.3,99.90459111008592,
180,0,4,-4,1.15,,,,,1,0,1,0,0,54,54,55,,,,,,,,,,,,,,,,,,,,,,,496.7909936000069,None,496.7909936000069,None,496.29065770001034,None,f,0.4713902999938,496.7909936000069,None,,,,,,,o,001,2021_Jul_08_1436,toilet,2021.1.3,99.90459111008592,
0,180,-4,4,0.97,,,,,1,0,1,0,0,55,55,16,,,,,,,,,,,,,,,,,,,,,,,498.2619932999951,None,498.2619932999951,None,497.7616596999869,None,j,0.504445400001714,498.2619932999951,None,,,,,,,o,001,2021_Jul_08_1436,toilet,2021.1.3,99.90459111008592,
180,180,-4,4,0.94,,,,,1,0,1,0,1,0,56,29,,,,,,,,,,,,,,,,,,,,,,,499.7830229999963,None,499.7830229999963,None,499.2826856999891,None,f,0.4073200999991968,499.7830229999963,None,,,,,,,o,001,2021_Jul_08_1436,toilet,2021.1.3,99.90459111008592,
0,180,-4,4,1.03,,,,,1,0,1,0,1,1,57,18,,,,,,,,,,,,,,,,,,,,,,,501.1940668000025,None,501.1940668000025,None,500.6936372999917,None,j,0.37252480001188815,501.1940668000025,None,,,,,,,o,001,2021_Jul_08_1436,toilet,2021.1.3,99.90459111008592,
180,0,-4,4,1.06,,,,,1,0,1,0,1,2,58,47,,,,,,,,,,,,,,,,,,,,,,,502.58495829999447,None,502.58495829999447,None,502.0846578000055,None,j,0.4374138999846764,502.58495829999447,None,,,,,,,o,001,2021_Jul_08_1436,toilet,2021.1.3,99.90459111008592,
0,0,-4,4,0.97,,,,,1,0,1,0,1,3,59,2,,,,,,,,,,,,,,,,,,,,,,,504.0258959000057,None,504.0258959000057,None,503.5255635000067,None,f,0.6284802999871317,504.0258959000057,None,,,,,,,o,001,2021_Jul_08_1436,toilet,2021.1.3,99.90459111008592,
0,0,-4,4,1.06,,,,,1,0,1,0,1,4,60,5,,,,,,,,,,,,,,,,,,,,,,,505.65700559999095,None,505.65700559999095,None,505.1566642000107,None,j,0.32567229997948743,505.65700559999095,None,,,,,,,o,001,2021_Jul_08_1436,toilet,2021.1.3,99.90459111008592,
180,180,4,-4,0.97,,,,,1,0,1,0,1,5,61,37,,,,,,,,,,,,,,,,,,,,,,,506.9979136000038,None,506.9979136000038,None,506.4975753999897,None,f,0.4246164000069257,506.9979136000038,None,,,,,,,o,001,2021_Jul_08_1436,toilet,2021.1.3,99.90459111008592,
0,0,4,-4,1.15,,,,,1,0,1,0,1,6,62,13,,,,,,,,,,,,,,,,,,,,,,,508.43897570000263,None,508.43897570000263,None,507.93856139999116,None,f,0.37563750002300367,508.43897570000263,None,,,,,,,o,001,2021_Jul_08_1436,toilet,2021.1.3,99.90459111008592,
180,180,-4,4,1.0,,,,,1,0,1,0,1,7,63,31,,,,,,,,,,,,,,,,,,,,,,,509.829908899992,None,509.829908899992,None,509.32956859999103,None,j,0.344703099981416,509.829908899992,None,,,,,,,o,001,2021_Jul_08_1436,toilet,2021.1.3,99.90459111008592,
0,180,4,-4,1.06,,,,,1,0,1,0,1,8,64,26,,,,,,,,,,,,,,,,,,,,,,,511.18074999999953,None,511.18074999999953,None,510.6804225000087,None,f,0.4017102000070736,511.18074999999953,None,,,,,,,o,001,2021_Jul_08_1436,toilet,2021.1.3,99.90459111008592,
0,180,4,-4,1.15,,,,,1,0,1,0,1,9,65,27,,,,,,,,,,,,,,,,,,,,,,,512.5917135000054,None,512.5917135000054,None,512.0913682999962,None,f,0.41481479999492876,512.5917135000054,None,,,,,,,o,001,2021_Jul_08_1436,toilet,2021.1.3,99.90459111008592,
0,0,-4,4,0.85,,,,,1,0,1,0,1,10,66,0,,,,,,,,,,,,,,,,,,,,,,,514.0226791999885,None,514.0226791999885,None,513.5223418000096,None,f,0.4397795999830123,514.0226791999885,None,,,,,,,o,001,2021_Jul_08_1436,toilet,2021.1.3,99.90459111008592,
180,0,4,-4,0.97,,,,,1,0,1,0,1,11,67,51,,,,,,,,,,,,,,,,,,,,,,,515.4736628000101,None,515.4736628000101,None,514.9734174000041,None,j,0.39698109999881126,515.4736628000101,None,,,,,,,o,001,2021_Jul_08_1436,toilet,2021.1.3,99.90459111008592,
180,0,4,-4,1.03,,,,,1,0,1,0,1,12,68,53,,,,,,,,,,,,,,,,,,,,,,,516.8846297000127,None,516.8846297000127,None,516.3843648000038,None,j,0.761819999985164,516.8846297000127,None,,,,,,,o,001,2021_Jul_08_1436,toilet,2021.1.3,99.90459111008592,
180,180,4,-4,1.06,,,,,1,0,1,0,1,13,69,40,,,,,,,,,,,,,,,,,,,,,,,518.6458136999863,None,518.6458136999863,None,518.1454801000073,None,f,0.5046259999799076,518.6458136999863,None,,,,,,,o,001,2021_Jul_08_1436,toilet,2021.1.3,99.90459111008592,
180,0,-4,4,1.15,,,,,1,0,1,0,1,14,70,48,,,,,,,,,,,,,,,,,,,,,,,520.1568318000063,None,520.1568318000063,None,519.6564906999993,None,j,0.43363360001239926,520.1568318000063,None,,,,,,,o,001,2021_Jul_08_1436,toilet,2021.1.3,99.90459111008592,
180,0,4,-4,1.0,,,,,1,0,1,0,1,15,71,52,,,,,,,,,,,,,,,,,,,,,,,521.5978100000066,None,521.5978100000066,None,521.0974696000048,None,f,0.6726161999977194,521.5978100000066,None,,,,,,,o,001,2021_Jul_08_1436,toilet,2021.1.3,99.90459111008592,
0,0,4,-4,1.06,,,,,1,0,1,0,1,16,72,12,,,,,,,,,,,,,,,,,,,,,,,523.2889556000009,None,523.2889556000009,None,522.7886965000071,None,f,0.4215058000118006,523.2889556000009,None,,,,,,,o,001,2021_Jul_08_1436,toilet,2021.1.3,99.90459111008592,
0,180,4,-4,0.85,,,,,1,0,1,0,1,17,73,21,,,,,,,,,,,,,,,,,,,,,,,524.7199435000075,None,524.7199435000075,None,524.2196850999899,None,j,0.44653400001698174,524.7199435000075,None,,,,,,,o,001,2021_Jul_08_1436,toilet,2021.1.3,99.90459111008592,
180,0,4,-4,0.85,,,,,1,0,1,0,1,18,74,49,,,,,,,,,,,,,,,,,,,,,,,526.1709134000121,None,526.1709134000121,None,525.6705705999921,None,j,0.8515287000045646,526.1709134000121,None,,,,,,,o,001,2021_Jul_08_1436,toilet,2021.1.3,99.90459111008592,
0,180,-4,4,1.15,,,,,1,0,1,0,1,19,75,20,,,,,,,,,,,,,,,,,,,,,,,528.022166699986,None,528.022166699986,None,527.5218248000019,None,j,0.37645149999298155,528.022166699986,None,,,,,,,o,001,2021_Jul_08_1436,toilet,2021.1.3,99.90459111008592,
180,180,-4,4,0.97,,,,,1,0,1,0,1,20,76,30,,,,,,,,,,,,,,,,,,,,,,,529.4131166999869,None,529.4131166999869,None,528.9127730999899,None,f,0.42531469999812543,529.4131166999869,None,,,,,,,o,001,2021_Jul_08_1436,toilet,2021.1.3,99.90459111008592,
180,180,-4,4,0.85,,,,,1,0,1,0,1,21,77,28,,,,,,,,,,,,,,,,,,,,,,,530.8441587999987,None,530.8441587999987,None,530.3437400000112,None,f,0.35446220001904294,530.8441587999987,None,,,,,,,o,001,2021_Jul_08_1436,toilet,2021.1.3,99.90459111008592,
180,0,-4,4,0.97,,,,,1,0,1,0,1,22,78,44,,,,,,,,,,,,,,,,,,,,,,,532.2150208000094,None,532.2150208000094,None,531.7146703999897,None,f,1.031519499985734,532.2150208000094,None,,,,,,,o,001,2021_Jul_08_1436,toilet,2021.1.3,99.90459111008592,
180,180,4,-4,1.0,,,,,1,0,1,0,1,23,79,38,,,,,,,,,,,,,,,,,,,,,,,534.2463862999866,None,534.2463862999866,None,533.7460523000045,None,f,0.9361282000027131,534.2463862999866,None,,,,,,,o,001,2021_Jul_08_1436,toilet,2021.1.3,99.90459111008592,
180,180,4,-4,1.15,,,,,1,0,1,0,1,24,80,41,,,,,,,,,,,,,,,,,,,,,,,536.1977066000109,None,536.1977066000109,None,535.6973765000002,None,f,0.42470329999923706,536.1977066000109,None,,,,,,,o,001,2021_Jul_08_1436,toilet,2021.1.3,99.90459111008592,
0,0,-4,4,1.03,,,,,1,0,1,0,1,25,81,4,,,,,,,,,,,,,,,,,,,,,,,537.62875850001,None,537.62875850001,None,537.1283436999947,None,j,0.48175579999224283,537.62875850001,None,,,,,,,o,001,2021_Jul_08_1436,toilet,2021.1.3,99.90459111008592,
180,180,4,-4,0.85,,,,,1,0,1,0,1,26,82,35,,,,,,,,,,,,,,,,,,,,,,,539.1197872000048,None,539.1197872000048,None,538.6194538999989,None,j,0.3666123000148218,539.1197872000048,None,,,,,,,o,001,2021_Jul_08_1436,toilet,2021.1.3,99.90459111008592,
0,0,-4,4,1.15,,,,,1,0,1,0,1,27,83,6,,,,,,,,,,,,,,,,,,,,,,,540.5006263999967,None,540.5006263999967,None,540.0002880000102,None,j,0.42583039999590255,540.5006263999967,None,,,,,,,o,001,2021_Jul_08_1436,toilet,2021.1.3,99.90459111008592,
0,180,4,-4,1.0,,,,,1,0,1,0,1,28,84,24,,,,,,,,,,,,,,,,,,,,,,,541.9315968999872,None,541.9315968999872,None,541.4312619999982,None,f,1.1228496999829076,541.9315968999872,None,,,,,,,o,001,2021_Jul_08_1436,toilet,2021.1.3,99.90459111008592,
0,180,-4,4,0.97,,,,,1,0,1,0,1,29,85,16,,,,,,,,,,,,,,,,,,,,,,,544.0730485999957,None,544.0730485999957,None,543.5727178000088,None,f,0.5174895999953151,544.0730485999957,None,,,,,,,o,001,2021_Jul_08_1436,toilet,2021.1.3,99.90459111008592,
0,0,4,-4,0.94,,,,,1,0,1,0,1,30,86,8,,,,,,,,,,,,,,,,,,,,,,,545.6041777000064,None,545.6041777000064,None,545.1038303000096,None,j,0.4423425999993924,545.6041777000064,None,,,,,,,o,001,2021_Jul_08_1436,toilet,2021.1.3,99.90459111008592,
0,180,-4,4,0.94,,,,,1,0,1,0,1,31,87,15,,,,,,,,,,,,,,,,,,,,,,,547.0650779999851,None,547.0650779999851,None,546.5648227999918,None,f,0.42142040000180714,547.0650779999851,None,,,,,,,o,001,2021_Jul_08_1436,toilet,2021.1.3,99.90459111008592,
0,0,-4,4,1.0,,,,,1,0,1,0,1,32,88,3,,,,,,,,,,,,,,,,,,,,,,,548.4860497000045,None,548.4860497000045,None,547.9857036999892,None,f,0.5843135000031907,548.4860497000045,None,,,,,,,o,001,2021_Jul_08_1436,toilet,2021.1.3,99.90459111008592,
0,180,4,-4,0.94,,,,,1,0,1,0,1,33,89,22,,,,,,,,,,,,,,,,,,,,,,,550.0771288000105,None,550.0771288000105,None,549.5767896999896,None,j,0.38539399998262525,550.0771288000105,None,,,,,,,o,001,2021_Jul_08_1436,toilet,2021.1.3,99.90459111008592,
0,0,4,-4,0.85,,,,,1,0,1,0,1,34,90,7,,,,,,,,,,,,,,,,,,,,,,,551.4780841000029,None,551.4780841000029,None,550.977739199996,None,j,0.40835790001438,551.4780841000029,None,,,,,,,o,001,2021_Jul_08_1436,toilet,2021.1.3,99.90459111008592,
180,0,-4,4,1.0,,,,,1,0,1,0,1,35,91,45,,,,,,,,,,,,,,,,,,,,,,,552.8991357999912,None,552.8991357999912,None,552.3987029999844,None,f,1.2274987999990117,552.8991357999912,None,,,,,,,o,001,2021_Jul_08_1436,toilet,2021.1.3,99.90459111008592,
0,0,4,-4,0.97,,,,,1,0,1,0,1,36,92,9,,,,,,,,,,,,,,,,,,,,,,,555.1405569000053,None,555.1405569000053,None,554.6402165000036,None,j,0.729886200017063,555.1405569000053,None,,,,,,,o,001,2021_Jul_08_1436,toilet,2021.1.3,99.90459111008592,
0,180,4,-4,1.03,,,,,1,0,1,0,1,37,93,25,,,,,,,,,,,,,,,,,,,,,,,556.8717279999983,None,556.8717279999983,None,556.3713994999998,None,f,0.3746355000184849,556.8717279999983,None,,,,,,,o,001,2021_Jul_08_1436,toilet,2021.1.3,99.90459111008592,
180,180,4,-4,0.94,,,,,1,0,1,0,1,38,94,36,,,,,,,,,,,,,,,,,,,,,,,558.2526694000117,None,558.2526694000117,None,557.7523265999916,None,j,0.5618180999881588,558.2526694000117,None,,,,,,,o,001,2021_Jul_08_1436,toilet,2021.1.3,99.90459111008592,
180,180,-4,4,1.15,,,,,1,0,1,0,1,39,95,34,,,,,,,,,,,,,,,,,,,,,,,559.8237523999996,None,559.8237523999996,None,559.3233894000005,None,j,0.4466248999815434,559.8237523999996,None,,,,,,,o,001,2021_Jul_08_1436,toilet,2021.1.3,99.90459111008592,
180,0,-4,4,0.94,,,,,1,0,1,0,1,40,96,43,,,,,,,,,,,,,,,,,,,,,,,561.2848164000025,None,561.2848164000025,None,560.7844744999893,None,f,0.3457698000129312,561.2848164000025,None,,,,,,,o,001,2021_Jul_08_1436,toilet,2021.1.3,99.90459111008592,
180,0,4,-4,1.15,,,,,1,0,1,0,1,41,97,55,,,,,,,,,,,,,,,,,,,,,,,562.6456497999898,None,562.6456497999898,None,562.145309399988,None,f,0.4567432000185363,562.6456497999898,None,,,,,,,o,001,2021_Jul_08_1436,toilet,2021.1.3,99.90459111008592,
0,0,4,-4,1.0,,,,,1,0,1,0,1,42,98,10,,,,,,,,,,,,,,,,,,,,,,,564.1066480999871,None,564.1066480999871,None,563.6063044999901,None,f,2.163740099989809,564.1066480999871,None,,,,,,,o,001,2021_Jul_08_1436,toilet,2021.1.3,99.90459111008592,
0,0,4,-4,1.03,,,,,1,0,1,0,1,43,99,11,,,,,,,,,,,,,,,,,,,,,,,567.2788012000092,None,567.2788012000092,None,566.7784577999846,None,f,0.543731600017054,567.2788012000092,None,,,,,,,o,001,2021_Jul_08_1436,toilet,2021.1.3,99.90459111008592,
0,180,-4,4,0.85,,,,,1,0,1,0,1,44,100,14,,,,,,,,,,,,,,,,,,,,,,,568.8398512999993,None,568.8398512999993,None,568.3395956000022,None,f,0.5025001000030898,568.8398512999993,None,,,,,,,o,001,2021_Jul_08_1436,toilet,2021.1.3,99.90459111008592,
180,180,-4,4,1.03,,,,,1,0,1,0,1,45,101,32,,,,,,,,,,,,,,,,,,,,,,,570.3508766999876,None,570.3508766999876,None,569.850534600002,None,j,0.41551319998688996,570.3508766999876,None,,,,,,,o,001,2021_Jul_08_1436,toilet,2021.1.3,99.90459111008592,
180,0,4,-4,0.94,,,,,1,0,1,0,1,46,102,50,,,,,,,,,,,,,,,,,,,,,,,571.7718423999904,None,571.7718423999904,None,571.271514299995,None,j,0.40257270002621226,571.7718423999904,None,,,,,,,o,001,2021_Jul_08_1436,toilet,2021.1.3,99.90459111008592,
180,0,-4,4,1.03,,,,,1,0,1,0,1,47,103,46,,,,,,,,,,,,,,,,,,,,,,,573.1828004000126,None,573.1828004000126,None,572.682455800008,None,f,1.631595999991987,573.1828004000126,None,,,,,,,o,001,2021_Jul_08_1436,toilet,2021.1.3,99.90459111008592,
0,0,-4,4,0.94,,,,,1,0,1,0,1,48,104,1,,,,,,,,,,,,,,,,,,,,,,,575.8245885999931,None,575.8245885999931,None,575.3243260000017,None,j,0.47786130002350546,575.8245885999931,None,,,,,,,o,001,2021_Jul_08_1436,toilet,2021.1.3,99.90459111008592,
180,0,-4,4,0.85,,,,,1,0,1,0,1,49,105,42,,,,,,,,,,,,,,,,,,,,,,,577.3155992999964,None,577.3155992999964,None,576.8152556999994,None,f,0.44280450002406724,577.3155992999964,None,,,,,,,o,001,2021_Jul_08_1436,toilet,2021.1.3,99.90459111008592,
0,180,-4,4,1.06,,,,,1,0,1,0,1,50,106,19,,,,,,,,,,,,,,,,,,,,,,,578.7665785999852,None,578.7665785999852,None,578.2662358999951,None,j,0.47976619997643866,578.7665785999852,None,,,,,,,o,001,2021_Jul_08_1436,toilet,2021.1.3,99.90459111008592,
0,180,4,-4,0.97,,,,,1,0,1,0,1,51,107,23,,,,,,,,,,,,,,,,,,,,,,,580.2475797999941,None,580.2475797999941,None,579.7472415000084,None,f,2.182868200005032,580.2475797999941,None,,,,,,,o,001,2021_Jul_08_1436,toilet,2021.1.3,99.90459111008592,
0,180,-4,4,1.0,,,,,1,0,1,0,1,52,108,17,,,,,,,,,,,,,,,,,,,,,,,583.4398274999985,None,583.4398274999985,None,582.9394174999907,None,j,0.3825350000115577,583.4398274999985,None,,,,,,,o,001,2021_Jul_08_1436,toilet,2021.1.3,99.90459111008592,
180,0,4,-4,1.06,,,,,1,0,1,0,1,53,109,54,,,,,,,,,,,,,,,,,,,,,,,584.8406982999877,None,584.8406982999877,None,584.3403626999934,None,j,0.8538418999814894,584.8406982999877,None,,,,,,,o,001,2021_Jul_08_1436,toilet,2021.1.3,99.90459111008592,
180,180,-4,4,1.06,,,,,1,0,1,0,1,54,110,33,,,,,,,,,,,,,,,,,,,,,,,586.7019679000077,None,586.7019679000077,None,586.2016216999909,None,j,0.6565269000129774,586.7019679000077,None,,,,,,,o,001,2021_Jul_08_1436,toilet,2021.1.3,99.90459111008592,
180,180,4,-4,1.03,,,,,1,0,1,0,1,55,111,39,,,,,,,,,,,,,,,,,,,,,,,588.3831007000117,None,588.3831007000117,None,587.8827607999847,None,f,0.8313922999950591,588.3831007000117,None,,,,,,,o,001,2021_Jul_08_1436,toilet,2021.1.3,99.90459111008592,
,,,,,,,,,1,0,1,0,,,,,,,,,,,,,,,,,,,,,,,,,,,,,,,,,,,,,589.2337333000032,None,space,12.7167427999957,589.2337333000032,None,o,001,2021_Jul_08_1436,toilet,2021.1.3,99.90459111008592,
0,0,4,-4,1.15,,,,,2,0,2,0,0,0,0,13,,,,,,,,,,,,,,,,,601.972374200006,None,space,0.3461218000156805,601.972374200006,None,603.3432457000017,None,603.3432457000017,None,602.8429125999974,None,f,0.4952503000095021,603.3432457000017,None,,,,,,,o,001,2021_Jul_08_1436,toilet,2021.1.3,99.90459111008592,
180,0,4,-4,0.94,,,,,2,0,2,0,0,1,1,50,,,,,,,,,,,,,,,,,,,,,,,604.8543606000021,None,604.8543606000021,None,604.353967300005,None,j,0.36008690000744537,604.8543606000021,None,,,,,,,o,001,2021_Jul_08_1436,toilet,2021.1.3,99.90459111008592,
0,180,-4,4,1.0,,,,,2,0,2,0,0,2,2,17,,,,,,,,,,,,,,,,,,,,,,,606.225211699988,None,606.225211699988,None,605.7248936000105,None,j,0.397186199988937,606.225211699988,None,,,,,,,o,001,2021_Jul_08_1436,toilet,2021.1.3,99.90459111008592,
0,180,-4,4,0.94,,,,,2,0,2,0,0,3,3,15,,,,,,,,,,,,,,,,,,,,,,,607.6261445999844,None,607.6261445999844,None,607.125815300009,None,j,0.48437289998400956,607.6261445999844,None,,,,,,,o,001,2021_Jul_08_1436,toilet,2021.1.3,99.90459111008592,
180,180,4,-4,1.0,,,,,2,0,2,0,0,4,4,38,,,,,,,,,,,,,,,,,,,,,,,609.1271753000037,None,609.1271753000037,None,608.6268312000029,None,f,0.42324550001649186,609.1271753000037,None,,,,,,,o,001,2021_Jul_08_1436,toilet,2021.1.3,99.90459111008592,
0,0,-4,4,0.97,,,,,2,0,2,0,0,5,5,2,,,,,,,,,,,,,,,,,,,,,,,610.5681477999897,None,610.5681477999897,None,610.0678134000045,None,f,0.5664612999826204,610.5681477999897,None,,,,,,,o,001,2021_Jul_08_1436,toilet,2021.1.3,99.90459111008592,
0,0,-4,4,1.06,,,,,2,0,2,0,0,6,6,5,,,,,,,,,,,,,,,,,,,,,,,612.1493077999912,None,612.1493077999912,None,611.6488832999894,None,j,0.5369922999816481,612.1493077999912,None,,,,,,,o,001,2021_Jul_08_1436,toilet,2021.1.3,99.90459111008592,
180,180,-4,4,1.0,,,,,2,0,2,0,0,7,7,31,,,,,,,,,,,,,,,,,,,,,,,613.6902645000082,None,613.6902645000082,None,613.1899414999934,None,j,1.0600752999889664,613.6902645000082,None,,,,,,,o,001,2021_Jul_08_1436,toilet,2021.1.3,99.90459111008592,
180,0,-4,4,0.94,,,,,2,0,2,0,0,8,8,43,,,,,,,,,,,,,,,,,,,,,,,615.7516650999896,None,615.7516650999896,None,615.2513263000001,None,f,0.39076029998250306,615.7516650999896,None,,,,,,,o,001,2021_Jul_08_1436,toilet,2021.1.3,99.90459111008592,
180,180,-4,4,1.06,,,,,2,0,2,0,0,9,9,33,,,,,,,,,,,,,,,,,,,,,,,617.1426099000091,None,617.1426099000091,None,616.6422678999952,None,j,0.5998362000100315,617.1426099000091,None,,,,,,,o,001,2021_Jul_08_1436,toilet,2021.1.3,99.90459111008592,
180,180,4,-4,0.94,,,,,2,0,2,0,0,10,10,36,,,,,,,,,,,,,,,,,,,,,,,618.7537058999878,None,618.7537058999878,None,618.2533605000062,None,j,0.6049785999930464,618.7537058999878,None,,,,,,,o,001,2021_Jul_08_1436,toilet,2021.1.3,99.90459111008592,
180,0,-4,4,0.97,,,,,2,0,2,0,0,11,11,44,,,,,,,,,,,,,,,,,,,,,,,620.3748358000012,None,620.3748358000012,None,619.8744734000065,None,f,0.3755092000064906,620.3748358000012,None,,,,,,,o,001,2021_Jul_08_1436,toilet,2021.1.3,99.90459111008592,
180,180,4,-4,1.15,,,,,2,0,2,0,0,12,12,41,,,,,,,,,,,,,,,,,,,,,,,621.7557326999959,None,621.7557326999959,None,621.2553988999862,None,f,0.4346648000064306,621.7557326999959,None,,,,,,,o,001,2021_Jul_08_1436,toilet,2021.1.3,99.90459111008592,
0,0,-4,4,0.94,,,,,2,0,2,0,0,13,13,1,,,,,,,,,,,,,,,,,,,,,,,623.196712600009,None,623.196712600009,None,622.696371900005,None,j,0.3537791999988258,623.196712600009,None,,,,,,,o,001,2021_Jul_08_1436,toilet,2021.1.3,99.90459111008592,
0,180,-4,4,0.85,,,,,2,0,2,0,0,14,14,14,,,,,,,,,,,,,,,,,,,,,,,624.5676418000076,None,624.5676418000076,None,624.0673051000049,None,f,0.5667738000047393,624.5676418000076,None,,,,,,,o,001,2021_Jul_08_1436,toilet,2021.1.3,99.90459111008592,
180,180,-4,4,1.15,,,,,2,0,2,0,0,15,15,34,,,,,,,,,,,,,,,,,,,,,,,626.1387986000045,None,626.1387986000045,None,625.638369799999,None,j,0.4196065000141971,626.1387986000045,None,,,,,,,o,001,2021_Jul_08_1436,toilet,2021.1.3,99.90459111008592,
180,0,4,-4,1.15,,,,,2,0,2,0,0,16,16,55,,,,,,,,,,,,,,,,,,,,,,,627.5697677999851,None,627.5697677999851,None,627.0694151000062,None,f,0.34856469999067485,627.5697677999851,None,,,,,,,o,001,2021_Jul_08_1436,toilet,2021.1.3,99.90459111008592,
180,0,4,-4,0.85,,,,,2,0,2,0,0,17,17,49,,,,,,,,,,,,,,,,,,,,,,,628.9305968999979,None,628.9305968999979,None,628.4302585000114,None,j,0.39587430001120083,628.9305968999979,None,,,,,,,o,001,2021_Jul_08_1436,toilet,2021.1.3,99.90459111008592,
0,180,4,-4,1.0,,,,,2,0,2,0,0,18,18,24,,,,,,,,,,,,,,,,,,,,,,,630.3315490999958,None,630.3315490999958,None,629.831208299991,None,f,0.38676560000749305,630.3315490999958,None,,,,,,,o,001,2021_Jul_08_1436,toilet,2021.1.3,99.90459111008592,
0,0,4,-4,0.94,,,,,2,0,2,0,0,19,19,8,,,,,,,,,,,,,,,,,,,,,,,631.7224938999861,None,631.7224938999861,None,631.2221559000027,None,j,0.4039848999818787,631.7224938999861,None,,,,,,,o,001,2021_Jul_08_1436,toilet,2021.1.3,99.90459111008592,
180,0,-4,4,1.03,,,,,2,0,2,0,0,20,20,46,,,,,,,,,,,,,,,,,,,,,,,633.1334883999953,None,633.1334883999953,None,632.6431194999896,None,j,0.4809096000099089,633.1334883999953,None,,,,,,,o,001,2021_Jul_08_1436,toilet,2021.1.3,99.90459111008592,
180,180,4,-4,0.97,,,,,2,0,2,0,0,21,21,37,,,,,,,,,,,,,,,,,,,,,,,634.6145371999883,None,634.6145371999883,None,634.1141742999898,None,j,0.4719050999847241,634.6145371999883,None,,,,,,,o,001,2021_Jul_08_1436,toilet,2021.1.3,99.90459111008592,
180,0,-4,4,1.0,,,,,2,0,2,0,0,22,22,45,,,,,,,,,,,,,,,,,,,,,,,636.105468099995,None,636.105468099995,None,635.6050987000053,None,f,0.37294590001692995,636.105468099995,None,,,,,,,o,001,2021_Jul_08_1436,toilet,2021.1.3,99.90459111008592,
180,0,-4,4,1.06,,,,,2,0,2,0,0,23,23,47,,,,,,,,,,,,,,,,,,,,,,,637.4863986999844,None,637.4863986999844,None,636.9860618000093,None,j,0.3200081999821123,637.4863986999844,None,,,,,,,o,001,2021_Jul_08_1436,toilet,2021.1.3,99.90459111008592,
180,180,4,-4,0.85,,,,,2,0,2,0,0,24,24,35,,,,,,,,,,,,,,,,,,,,,,,638.8173045000003,None,638.8173045000003,None,638.3169645000016,None,j,0.349088600021787,638.8173045000003,None,,,,,,,o,001,2021_Jul_08_1436,toilet,2021.1.3,99.90459111008592,
180,0,4,-4,1.03,,,,,2,0,2,0,0,25,25,53,,,,,,,,,,,,,,,,,,,,,,,640.178235600004,None,640.178235600004,None,639.6778858999896,None,f,0.5401797000085935,640.178235600004,None,,,,,,,o,001,2021_Jul_08_1436,toilet,2021.1.3,99.90459111008592,
0,180,4,-4,0.94,,,,,2,0,2,0,0,26,26,22,,,,,,,,,,,,,,,,,,,,,,,641.7193450999912,None,641.7193450999912,None,641.2190307000128,None,j,0.37524299998767674,641.7193450999912,None,,,,,,,o,001,2021_Jul_08_1436,toilet,2021.1.3,99.90459111008592,
0,0,4,-4,1.0,,,,,2,0,2,0,0,27,27,10,,,,,,,,,,,,,,,,,,,,,,,643.1102178999863,None,643.1102178999863,None,642.6098876000033,None,j,0.4081185999966692,643.1102178999863,None,,,,,,,o,001,2021_Jul_08_1436,toilet,2021.1.3,99.90459111008592,
0,0,-4,4,1.0,,,,,2,0,2,0,0,28,28,3,,,,,,,,,,,,,,,,,,,,,,,644.5211763000116,None,644.5211763000116,None,644.020832499984,None,f,0.8531824999954551,644.5211763000116,None,,,,,,,o,001,2021_Jul_08_1436,toilet,2021.1.3,99.90459111008592,
180,0,4,-4,1.0,,,,,2,0,2,0,0,29,29,52,,,,,,,,,,,,,,,,,,,,,,,646.392446199985,None,646.392446199985,None,645.8920986999874,None,j,0.3900022000016179,646.392446199985,None,,,,,,,o,001,2021_Jul_08_1436,toilet,2021.1.3,99.90459111008592,
180,0,4,-4,0.97,,,,,2,0,2,0,0,30,30,51,,,,,,,,,,,,,,,,,,,,,,,647.7934646999929,None,647.7934646999929,None,647.293052699999,None,f,1.6609709000040311,647.7934646999929,None,,,,,,,o,001,2021_Jul_08_1436,toilet,2021.1.3,99.90459111008592,
180,180,-4,4,1.03,,,,,2,0,2,0,0,31,31,32,,,,,,,,,,,,,,,,,,,,,,,650.4652055999904,None,650.4652055999904,None,649.964944700012,None,j,0.46107419999316335,650.4652055999904,None,,,,,,,o,001,2021_Jul_08_1436,toilet,2021.1.3,99.90459111008592,
0,180,-4,4,0.97,,,,,2,0,2,0,0,32,32,16,,,,,,,,,,,,,,,,,,,,,,,651.9261935999966,None,651.9261935999966,None,651.4258559999871,None,j,0.9361221000144724,651.9261935999966,None,,,,,,,o,001,2021_Jul_08_1436,toilet,2021.1.3,99.90459111008592,
0,0,4,-4,0.97,,,,,2,0,2,0,0,33,33,9,,,,,,,,,,,,,,,,,,,,,,,653.8675068999873,None,653.8675068999873,None,653.3671728000045,None,j,0.40289309999207035,653.8675068999873,None,,,,,,,o,001,2021_Jul_08_1436,toilet,2021.1.3,99.90459111008592,
0,0,4,-4,0.85,,,,,2,0,2,0,0,34,34,7,,,,,,,,,,,,,,,,,,,,,,,655.2784623999905,None,655.2784623999905,None,654.7781233999995,None,j,0.36794320002081804,655.2784623999905,None,,,,,,,o,001,2021_Jul_08_1436,toilet,2021.1.3,99.90459111008592,
180,0,4,-4,1.06,,,,,2,0,2,0,0,35,35,54,,,,,,,,,,,,,,,,,,,,,,,656.6593999000033,None,656.6593999000033,None,656.159135599999,None,f,0.41112669999711215,656.6593999000033,None,,,,,,,o,001,2021_Jul_08_1436,toilet,2021.1.3,99.90459111008592,
0,180,4,-4,0.97,,,,,2,0,2,0,0,36,36,23,,,,,,,,,,,,,,,,,,,,,,,658.0803638999932,None,658.0803638999932,None,657.5800544999947,None,f,0.4780449000245426,658.0803638999932,None,,,,,,,o,001,2021_Jul_08_1436,toilet,2021.1.3,99.90459111008592,
0,180,-4,4,1.15,,,,,2,0,2,0,0,37,37,20,,,,,,,,,,,,,,,,,,,,,,,659.5613700000104,None,659.5613700000104,None,659.0610306999879,None,j,0.3410618999914732,659.5613700000104,None,,,,,,,o,001,2021_Jul_08_1436,toilet,2021.1.3,99.90459111008592,
0,0,-4,4,1.15,,,,,2,0,2,0,0,38,38,6,,,,,,,,,,,,,,,,,,,,,,,660.9122899000067,None,660.9122899000067,None,660.4119474999898,None,j,0.3821368000062648,660.9122899000067,None,,,,,,,o,001,2021_Jul_08_1436,toilet,2021.1.3,99.90459111008592,
180,180,-4,4,0.97,,,,,2,0,2,0,0,39,39,30,,,,,,,,,,,,,,,,,,,,,,,662.3132397999871,None,662.3132397999871,None,661.8128985000076,None,f,0.43725560000166297,662.3132397999871,None,,,,,,,o,001,2021_Jul_08_1436,toilet,2021.1.3,99.90459111008592,
180,180,-4,4,0.94,,,,,2,0,2,0,0,40,40,29,,,,,,,,,,,,,,,,,,,,,,,663.7743182000122,None,663.7743182000122,None,663.2739778000105,None,f,0.5921431999886408,663.7743182000122,None,,,,,,,o,001,2021_Jul_08_1436,toilet,2021.1.3,99.90459111008592,
180,180,4,-4,1.03,,,,,2,0,2,0,0,41,41,39,,,,,,,,,,,,,,,,,,,,,,,665.3853203000035,None,665.3853203000035,None,664.8850157999841,None,f,0.5490782000124454,665.3853203000035,None,,,,,,,o,001,2021_Jul_08_1436,toilet,2021.1.3,99.90459111008592,
0,180,4,-4,1.06,,,,,2,0,2,0,0,42,42,26,,,,,,,,,,,,,,,,,,,,,,,666.9363668999868,None,666.9363668999868,None,666.4360429999942,None,f,0.5179452000011224,666.9363668999868,None,,,,,,,o,001,2021_Jul_08_1436,toilet,2021.1.3,99.90459111008592,
180,0,-4,4,0.85,,,,,2,0,2,0,0,43,43,42,,,,,,,,,,,,,,,,,,,,,,,668.4573986000032,None,668.4573986000032,None,667.9570586000045,None,f,0.357061499991687,668.4573986000032,None,,,,,,,o,001,2021_Jul_08_1436,toilet,2021.1.3,99.90459111008592,
180,180,4,-4,1.06,,,,,2,0,2,0,0,44,44,40,,,,,,,,,,,,,,,,,,,,,,,669.8283292000124,None,669.8283292000124,None,669.3279933999875,None,f,0.5380586999817751,669.8283292000124,None,,,,,,,o,001,2021_Jul_08_1436,toilet,2021.1.3,99.90459111008592,
0,180,4,-4,1.15,,,,,2,0,2,0,0,45,45,27,,,,,,,,,,,,,,,,,,,,,,,671.3794724000036,None,671.3794724000036,None,670.8790486000071,None,f,0.4109169000003021,671.3794724000036,None,,,,,,,o,001,2021_Jul_08_1436,toilet,2021.1.3,99.90459111008592,
0,180,-4,4,1.06,,,,,2,0,2,0,0,46,46,19,,,,,,,,,,,,,,,,,,,,,,,672.8003735000093,None,672.8003735000093,None,672.3000026000082,None,j,0.5259968999889679,672.8003735000093,None,,,,,,,o,001,2021_Jul_08_1436,toilet,2021.1.3,99.90459111008592,
0,180,-4,4,1.03,,,,,2,0,2,0,0,47,47,18,,,,,,,,,,,,,,,,,,,,,,,674.3313815000001,None,674.3313815000001,None,673.8310393999855,None,j,0.43507920001866296,674.3313815000001,None,,,,,,,o,001,2021_Jul_08_1436,toilet,2021.1.3,99.90459111008592,
0,180,4,-4,1.03,,,,,2,0,2,0,0,48,48,25,,,,,,,,,,,,,,,,,,,,,,,675.7923937999876,None,675.7923937999876,None,675.2920383999881,None,f,0.381991799979005,675.7923937999876,None,,,,,,,o,001,2021_Jul_08_1436,toilet,2021.1.3,99.90459111008592,
0,0,-4,4,1.03,,,,,2,0,2,0,0,49,49,4,,,,,,,,,,,,,,,,,,,,,,,677.1933311999892,None,677.1933311999892,None,676.6929918999958,None,j,1.9890756999957375,677.1933311999892,None,,,,,,,o,001,2021_Jul_08_1436,toilet,2021.1.3,99.90459111008592,
180,180,-4,4,0.85,,,,,2,0,2,0,0,50,50,28,,,,,,,,,,,,,,,,,,,,,,,680.1953604999871,None,680.1953604999871,None,679.6950231000083,None,f,0.602950599975884,680.1953604999871,None,,,,,,,o,001,2021_Jul_08_1436,toilet,2021.1.3,99.90459111008592,
0,0,-4,4,0.85,,,,,2,0,2,0,0,51,51,0,,,,,,,,,,,,,,,,,,,,,,,681.8064685999998,None,681.8064685999998,None,681.3061207999999,None,f,0.4319149999937508,681.8064685999998,None,,,,,,,o,001,2021_Jul_08_1436,toilet,2021.1.3,99.90459111008592,
180,0,-4,4,1.15,,,,,2,0,2,0,0,52,52,48,,,,,,,,,,,,,,,,,,,,,,,683.2474386999966,None,683.2474386999966,None,682.7470934999874,None,j,0.3509384000208229,683.2474386999966,None,,,,,,,o,001,2021_Jul_08_1436,toilet,2021.1.3,99.90459111008592,
0,0,4,-4,1.03,,,,,2,0,2,0,0,53,53,11,,,,,,,,,,,,,,,,,,,,,,,684.6083566999878,None,684.6083566999878,None,684.1080182000005,None,f,0.4780299999983981,684.6083566999878,None,,,,,,,o,001,2021_Jul_08_1436,toilet,2021.1.3,99.90459111008592,
0,0,4,-4,1.06,,,,,2,0,2,0,0,54,54,12,,,,,,,,,,,,,,,,,,,,,,,686.0994421000069,None,686.0994421000069,None,685.5990265999862,None,f,0.4750212999933865,686.0994421000069,None,,,,,,,o,001,2021_Jul_08_1436,toilet,2021.1.3,99.90459111008592,
0,180,4,-4,0.85,,,,,2,0,2,0,0,55,55,21,,,,,,,,,,,,,,,,,,,,,,,687.5903817999933,None,687.5903817999933,None,687.0900365999842,None,j,0.39197169998078607,687.5903817999933,None,,,,,,,o,001,2021_Jul_08_1436,toilet,2021.1.3,99.90459111008592,
180,0,-4,4,1.15,,,,,2,0,2,0,1,0,56,48,,,,,,,,,,,,,,,,,,,,,,,688.9913280000037,None,688.9913280000037,None,688.490987600002,None,j,0.38304760001483373,688.9913280000037,None,,,,,,,o,001,2021_Jul_08_1436,toilet,2021.1.3,99.90459111008592,
0,0,-4,4,1.15,,,,,2,0,2,0,1,1,57,6,,,,,,,,,,,,,,,,,,,,,,,690.3822677999851,None,690.3822677999851,None,689.8819343000068,None,j,0.3841859999811277,690.3822677999851,None,,,,,,,o,001,2021_Jul_08_1436,toilet,2021.1.3,99.90459111008592,
180,180,-4,4,0.85,,,,,2,0,2,0,1,2,58,28,,,,,,,,,,,,,,,,,,,,,,,691.7932315999933,None,691.7932315999933,None,691.2928996999981,None,f,0.3811707000131719,691.7932315999933,None,,,,,,,o,001,2021_Jul_08_1436,toilet,2021.1.3,99.90459111008592,
180,0,4,-4,0.97,,,,,2,0,2,0,1,3,59,51,,,,,,,,,,,,,,,,,,,,,,,693.1842610999884,None,693.1842610999884,None,692.6839084000094,None,j,0.30210089997854084,693.1842610999884,None,,,,,,,o,001,2021_Jul_08_1436,toilet,2021.1.3,99.90459111008592,
180,180,-4,4,1.0,,,,,2,0,2,0,1,4,60,31,,,,,,,,,,,,,,,,,,,,,,,694.495058200002,None,694.495058200002,None,693.9948119999899,None,f,0.46323940000729635,694.495058200002,None,,,,,,,o,001,2021_Jul_08_1436,toilet,2021.1.3,99.90459111008592,
0,180,-4,4,1.0,,,,,2,0,2,0,1,5,61,17,,,,,,,,,,,,,,,,,,,,,,,695.9660574999871,None,695.9660574999871,None,695.4657185999968,None,j,0.46422540000639856,695.9660574999871,None,,,,,,,o,001,2021_Jul_08_1436,toilet,2021.1.3,99.90459111008592,
0,0,-4,4,1.06,,,,,2,0,2,0,1,6,62,5,,,,,,,,,,,,,,,,,,,,,,,697.4370538000076,None,697.4370538000076,None,696.9367122999975,None,j,0.4492379000002984,697.4370538000076,None,,,,,,,o,001,2021_Jul_08_1436,toilet,2021.1.3,99.90459111008592,
180,0,-4,4,1.03,,,,,2,0,2,0,1,7,63,46,,,,,,,,,,,,,,,,,,,,,,,698.888040299993,None,698.888040299993,None,698.387705000001,None,f,0.2944710999727249,698.888040299993,None,,,,,,,o,001,2021_Jul_08_1436,toilet,2021.1.3,99.90459111008592,
0,0,4,-4,0.85,,,,,2,0,2,0,1,8,64,7,,,,,,,,,,,,,,,,,,,,,,,700.1990091000043,None,700.1990091000043,None,699.6986723000009,None,j,0.35935860002064146,700.1990091000043,None,,,,,,,o,001,2021_Jul_08_1436,toilet,2021.1.3,99.90459111008592,
0,180,4,-4,0.97,,,,,2,0,2,0,1,9,65,23,,,,,,,,,,,,,,,,,,,,,,,701.5698676999891,None,701.5698676999891,None,701.0696146000118,None,j,0.3485410000139382,701.5698676999891,None,,,,,,,o,001,2021_Jul_08_1436,toilet,2021.1.3,99.90459111008592,
180,0,4,-4,1.03,,,,,2,0,2,0,1,10,66,53,,,,,,,,,,,,,,,,,,,,,,,702.920773299993,None,702.920773299993,None,702.420432999992,None,f,0.373589599999832,702.920773299993,None,,,,,,,o,001,2021_Jul_08_1436,toilet,2021.1.3,99.90459111008592,
0,0,4,-4,1.15,,,,,2,0,2,0,1,11,67,13,,,,,,,,,,,,,,,,,,,,,,,704.3017072000075,None,704.3017072000075,None,703.8013703000033,None,f,0.336588500009384,704.3017072000075,None,,,,,,,o,001,2021_Jul_08_1436,toilet,2021.1.3,99.90459111008592,
0,0,-4,4,0.85,,,,,2,0,2,0,1,12,68,0,,,,,,,,,,,,,,,,,,,,,,,705.6426214000094,None,705.6426214000094,None,705.1422826999915,None,f,0.37185920000774786,705.6426214000094,None,,,,,,,o,001,2021_Jul_08_1436,toilet,2021.1.3,99.90459111008592,
0,180,-4,4,0.85,,,,,2,0,2,0,1,13,69,14,,,,,,,,,,,,,,,,,,,,,,,707.0335704000026,None,707.0335704000026,None,706.5332212999929,None,f,0.37293350000982173,707.0335704000026,None,,,,,,,o,001,2021_Jul_08_1436,toilet,2021.1.3,99.90459111008592,
180,180,4,-4,0.94,,,,,2,0,2,0,1,14,70,36,,,,,,,,,,,,,,,,,,,,,,,708.4245073999919,None,708.4245073999919,None,707.9242372000008,None,f,0.3098787000053562,708.4245073999919,None,,,,,,,o,001,2021_Jul_08_1436,toilet,2021.1.3,99.90459111008592,
0,180,4,-4,1.03,,,,,2,0,2,0,1,15,71,25,,,,,,,,,,,,,,,,,,,,,,,709.7353930000099,None,709.7353930000099,None,709.2350567000103,None,f,0.5029627000039909,709.7353930000099,None,,,,,,,o,001,2021_Jul_08_1436,toilet,2021.1.3,99.90459111008592,
180,180,4,-4,1.03,,,,,2,0,2,0,1,16,72,39,,,,,,,,,,,,,,,,,,,,,,,711.2464183999982,None,711.2464183999982,None,710.7460805999872,None,f,0.5278986000048462,711.2464183999982,None,,,,,,,o,001,2021_Jul_08_1436,toilet,2021.1.3,99.90459111008592,
180,180,4,-4,0.85,,,,,2,0,2,0,1,17,73,35,,,,,,,,,,,,,,,,,,,,,,,712.7774585000006,None,712.7774585000006,None,712.2770919000031,None,j,0.3409721000061836,712.7774585000006,None,,,,,,,o,001,2021_Jul_08_1436,toilet,2021.1.3,99.90459111008592,
0,180,-4,4,1.15,,,,,2,0,2,0,1,18,74,20,,,,,,,,,,,,,,,,,,,,,,,714.1283702999935,None,714.1283702999935,None,713.6280391000037,None,j,0.39800840002135374,714.1283702999935,None,,,,,,,o,001,2021_Jul_08_1436,toilet,2021.1.3,99.90459111008592,
180,180,4,-4,1.0,,,,,2,0,2,0,1,19,75,38,,,,,,,,,,,,,,,,,,,,,,,715.5394034000055,None,715.5394034000055,None,715.0390292000084,None,f,0.7789648000034504,715.5394034000055,None,,,,,,,o,001,2021_Jul_08_1436,toilet,2021.1.3,99.90459111008592,
0,0,4,-4,1.0,,,,,2,0,2,0,1,20,76,10,,,,,,,,,,,,,,,,,,,,,,,717.3305424999853,None,717.3305424999853,None,716.8302055000095,None,j,0.6197493999789003,717.3305424999853,None,,,,,,,o,001,2021_Jul_08_1436,toilet,2021.1.3,99.90459111008592,
0,0,4,-4,1.03,,,,,2,0,2,0,1,21,77,11,,,,,,,,,,,,,,,,,,,,,,,718.9516454999975,None,718.9516454999975,None,718.4513038999867,None,j,0.630722700007027,718.9516454999975,None,,,,,,,o,001,2021_Jul_08_1436,toilet,2021.1.3,99.90459111008592,
180,0,4,-4,0.94,,,,,2,0,2,0,1,22,78,50,,,,,,,,,,,,,,,,,,,,,,,720.5827502000029,None,720.5827502000029,None,720.0824116999866,None,j,0.4237544999923557,720.5827502000029,None,,,,,,,o,001,2021_Jul_08_1436,toilet,2021.1.3,99.90459111008592,
180,0,-4,4,1.0,,,,,2,0,2,0,1,23,79,45,,,,,,,,,,,,,,,,,,,,,,,722.023806799989,None,722.023806799989,None,721.5233593999874,None,f,0.34271139997872524,722.023806799989,None,,,,,,,o,001,2021_Jul_08_1436,toilet,2021.1.3,99.90459111008592,
0,180,-4,4,1.06,,,,,2,0,2,0,1,24,80,19,,,,,,,,,,,,,,,,,,,,,,,723.3846468999982,None,723.3846468999982,None,722.8843996000069,None,j,0.3416719000088051,723.3846468999982,None,,,,,,,o,001,2021_Jul_08_1436,toilet,2021.1.3,99.90459111008592,
0,0,-4,4,0.97,,,,,2,0,2,0,1,25,81,2,,,,,,,,,,,,,,,,,,,,,,,724.7455775999988,None,724.7455775999988,None,724.2452358999872,None,f,0.7728129000170156,724.7455775999988,None,,,,,,,o,001,2021_Jul_08_1436,toilet,2021.1.3,99.90459111008592,
0,180,4,-4,1.15,,,,,2,0,2,0,1,26,82,27,,,,,,,,,,,,,,,,,,,,,,,726.5267799999856,None,726.5267799999856,None,726.0264375999977,None,f,0.3677268000028562,726.5267799999856,None,,,,,,,o,001,2021_Jul_08_1436,toilet,2021.1.3,99.90459111008592,
180,0,4,-4,1.0,,,,,2,0,2,0,1,27,83,52,,,,,,,,,,,,,,,,,,,,,,,727.9077180000022,None,727.9077180000022,None,727.4073742000037,None,j,0.3948415000049863,727.9077180000022,None,,,,,,,o,001,2021_Jul_08_1436,toilet,2021.1.3,99.90459111008592,
0,0,4,-4,1.06,,,,,2,0,2,0,1,28,84,12,,,,,,,,,,,,,,,,,,,,,,,729.3186676999903,None,729.3186676999903,None,728.8183372000058,None,f,0.5837890999973752,729.3186676999903,None,,,,,,,o,001,2021_Jul_08_1436,toilet,2021.1.3,99.90459111008592,
180,180,-4,4,1.03,,,,,2,0,2,0,1,29,85,32,,,,,,,,,,,,,,,,,,,,,,,730.9197929000075,None,730.9197929000075,None,730.4194359999965,None,j,0.6944827999977861,730.9197929000075,None,,,,,,,o,001,2021_Jul_08_1436,toilet,2021.1.3,99.90459111008592,
0,0,-4,4,1.03,,,,,2,0,2,0,1,30,86,4,,,,,,,,,,,,,,,,,,,,,,,732.6209167999914,None,732.6209167999914,None,732.120574600005,None,j,0.4334693000128027,732.6209167999914,None,,,,,,,o,001,2021_Jul_08_1436,toilet,2021.1.3,99.90459111008592,
180,180,4,-4,1.06,,,,,2,0,2,0,1,31,87,40,,,,,,,,,,,,,,,,,,,,,,,734.0618903999857,None,734.0618903999857,None,733.5615473999933,None,f,0.4165997999953106,734.0618903999857,None,,,,,,,o,001,2021_Jul_08_1436,toilet,2021.1.3,99.90459111008592,
0,0,4,-4,0.97,,,,,2,0,2,0,1,32,88,9,,,,,,,,,,,,,,,,,,,,,,,735.4928619999846,None,735.4928619999846,None,734.9925225999905,None,j,0.3295454999897629,735.4928619999846,None,,,,,,,o,001,2021_Jul_08_1436,toilet,2021.1.3,99.90459111008592,
180,0,4,-4,0.85,,,,,2,0,2,0,1,33,89,49,,,,,,,,,,,,,,,,,,,,,,,736.8238338000083,None,736.8238338000083,None,736.3234221999883,None,j,0.34263490000739694,736.8238338000083,None,,,,,,,o,001,2021_Jul_08_1436,toilet,2021.1.3,99.90459111008592,
0,180,-4,4,0.97,,,,,2,0,2,0,1,34,90,16,,,,,,,,,,,,,,,,,,,,,,,738.184766499995,None,738.184766499995,None,737.684347500006,None,f,0.38954869998269714,738.184766499995,None,,,,,,,o,001,2021_Jul_08_1436,toilet,2021.1.3,99.90459111008592,
180,180,-4,4,1.15,,,,,2,0,2,0,1,35,91,34,,,,,,,,,,,,,,,,,,,,,,,739.5756349999865,None,739.5756349999865,None,739.085293399985,None,j,0.45466009998926893,739.5756349999865,None,,,,,,,o,001,2021_Jul_08_1436,toilet,2021.1.3,99.90459111008592,
180,0,4,-4,1.06,,,,,2,0,2,0,1,36,92,54,,,,,,,,,,,,,,,,,,,,,,,741.0366165000014,None,741.0366165000014,None,740.5362785999896,None,f,0.35377330001210794,741.0366165000014,None,,,,,,,o,001,2021_Jul_08_1436,toilet,2021.1.3,99.90459111008592,
180,0,-4,4,0.94,,,,,2,0,2,0,1,37,93,43,,,,,,,,,,,,,,,,,,,,,,,742.3975568999886,None,742.3975568999886,None,741.8972052999889,None,f,0.6887940999877173,742.3975568999886,None,,,,,,,o,001,2021_Jul_08_1436,toilet,2021.1.3,99.90459111008592,
180,180,-4,4,0.97,,,,,2,0,2,0,1,38,94,30,,,,,,,,,,,,,,,,,,,,,,,744.0986970000085,None,744.0986970000085,None,743.5984279999975,None,f,0.7796760000055656,744.0986970000085,None,,,,,,,o,001,2021_Jul_08_1436,toilet,2021.1.3,99.90459111008592,
180,180,4,-4,1.15,,,,,2,0,2,0,1,39,95,41,,,,,,,,,,,,,,,,,,,,,,,745.8899416000058,None,745.8899416000058,None,745.3896495999943,None,f,0.44439339998643845,745.8899416000058,None,,,,,,,o,001,2021_Jul_08_1436,toilet,2021.1.3,99.90459111008592,
0,180,-4,4,0.94,,,,,2,0,2,0,1,40,96,15,,,,,,,,,,,,,,,,,,,,,,,747.3408974999911,None,747.3408974999911,None,746.8405536999926,None,f,0.6253914999833796,747.3408974999911,None,,,,,,,o,001,2021_Jul_08_1436,toilet,2021.1.3,99.90459111008592,
180,180,4,-4,0.97,,,,,2,0,2,0,1,41,97,37,,,,,,,,,,,,,,,,,,,,,,,748.9719967000128,None,748.9719967000128,None,748.4716565000126,None,j,1.1223539999919012,748.9719967000128,None,,,,,,,o,001,2021_Jul_08_1436,toilet,2021.1.3,99.90459111008592,
180,180,-4,4,1.06,,,,,2,0,2,0,1,42,98,33,,,,,,,,,,,,,,,,,,,,,,,751.1135240999865,None,751.1135240999865,None,750.6131126999971,None,j,0.5167341000051238,751.1135240999865,None,,,,,,,o,001,2021_Jul_08_1436,toilet,2021.1.3,99.90459111008592,
0,180,4,-4,0.94,,,,,2,0,2,0,1,43,99,22,,,,,,,,,,,,,,,,,,,,,,,752.63448529999,None,752.63448529999,None,752.1342188999988,None,f,0.4358086000138428,752.63448529999,None,,,,,,,o,001,2021_Jul_08_1436,toilet,2021.1.3,99.90459111008592,
180,180,-4,4,0.94,,,,,2,0,2,0,1,44,100,29,,,,,,,,,,,,,,,,,,,,,,,754.0854643000057,None,754.0854643000057,None,753.5851259999909,None,f,0.42490929999621585,754.0854643000057,None,,,,,,,o,001,2021_Jul_08_1436,toilet,2021.1.3,99.90459111008592,
180,0,4,-4,1.15,,,,,2,0,2,0,1,45,101,55,,,,,,,,,,,,,,,,,,,,,,,755.516440300009,None,755.516440300009,None,755.0160977999913,None,f,0.3699178000097163,755.516440300009,None,,,,,,,o,001,2021_Jul_08_1436,toilet,2021.1.3,99.90459111008592,
180,0,-4,4,0.97,,,,,2,0,2,0,1,46,102,44,,,,,,,,,,,,,,,,,,,,,,,756.8973826000001,None,756.8973826000001,None,756.3970384999993,None,j,0.4609529000008479,756.8973826000001,None,,,,,,,o,001,2021_Jul_08_1436,toilet,2021.1.3,99.90459111008592,
0,180,4,-4,1.06,,,,,2,0,2,0,1,47,103,26,,,,,,,,,,,,,,,,,,,,,,,758.3683683999989,None,758.3683683999989,None,757.8680344999884,None,f,0.8140618999896105,758.3683683999989,None,,,,,,,o,001,2021_Jul_08_1436,toilet,2021.1.3,99.90459111008592,
0,0,-4,4,1.0,,,,,2,0,2,0,1,48,104,3,,,,,,,,,,,,,,,,,,,,,,,760.1996130000043,None,760.1996130000043,None,759.699363199994,None,j,1.0947795000101905,760.1996130000043,None,,,,,,,o,001,2021_Jul_08_1436,toilet,2021.1.3,99.90459111008592,
0,180,4,-4,0.85,,,,,2,0,2,0,1,49,105,21,,,,,,,,,,,,,,,,,,,,,,,762.3010390999843,None,762.3010390999843,None,761.8006977000041,None,j,0.40131560000008903,762.3010390999843,None,,,,,,,o,001,2021_Jul_08_1436,toilet,2021.1.3,99.90459111008592,
0,180,-4,4,1.03,,,,,2,0,2,0,1,50,106,18,,,,,,,,,,,,,,,,,,,,,,,763.7120051000093,None,763.7120051000093,None,763.2116550999926,None,f,0.3823742999811657,763.7120051000093,None,,,,,,,o,001,2021_Jul_08_1436,toilet,2021.1.3,99.90459111008592,
0,0,4,-4,0.94,,,,,2,0,2,0,1,51,107,8,,,,,,,,,,,,,,,,,,,,,,,765.1129427000124,None,765.1129427000124,None,764.6126081999973,None,j,0.6133582000038587,765.1129427000124,None,,,,,,,o,001,2021_Jul_08_1436,toilet,2021.1.3,99.90459111008592,
180,0,-4,4,0.85,,,,,2,0,2,0,1,52,108,42,,,,,,,,,,,,,,,,,,,,,,,766.7341365999891,None,766.7341365999891,None,766.2337961999874,None,f,0.4161722999997437,766.7341365999891,None,,,,,,,o,001,2021_Jul_08_1436,toilet,2021.1.3,99.90459111008592,
0,180,4,-4,1.0,,,,,2,0,2,0,1,53,109,24,,,,,,,,,,,,,,,,,,,,,,,768.1550104999915,None,768.1550104999915,None,767.6547563000058,None,j,0.41936250001890585,768.1550104999915,None,,,,,,,o,001,2021_Jul_08_1436,toilet,2021.1.3,99.90459111008592,
0,0,-4,4,0.94,,,,,2,0,2,0,1,54,110,1,,,,,,,,,,,,,,,,,,,,,,,769.5759707000107,None,769.5759707000107,None,769.0756330000004,None,f,1.974430999980541,769.5759707000107,None,,,,,,,o,001,2021_Jul_08_1436,toilet,2021.1.3,99.90459111008592,
180,0,-4,4,1.06,,,,,2,0,2,0,1,55,111,47,,,,,,,,,,,,,,,,,,,,,,,772.5680036999984,None,772.5680036999984,None,772.0676654999843,None,j,0.4383377000049222,772.5680036999984,None,,,,,,,o,001,2021_Jul_08_1436,toilet,2021.1.3,99.90459111008592,
,,,,,,,,,2,0,2,0,,,,,,,,,,,,,,,,,,,,,,,,,,,,,,,,,,,,,773.0283714999969,None,space,4.522111300000688,773.0283714999969,None,o,001,2021_Jul_08_1436,toilet,2021.1.3,99.90459111008592,
180,180,4,-4,1.15,,,,,3,0,3,0,0,0,0,41,,,,,,,,,,,,,,,,,777.5714257000072,None,space,0.6509227999777067,777.5714257000072,None,779.2425237999996,None,779.2425237999996,None,778.7421868999954,None,f,0.4039866999955848,779.2425237999996,None,,,,,,,o,001,2021_Jul_08_1436,toilet,2021.1.3,99.90459111008592,
0,180,4,-4,0.97,,,,,3,0,3,0,0,1,1,23,,,,,,,,,,,,,,,,,,,,,,,780.6734981999907,None,780.6734981999907,None,780.1731598000042,None,j,0.3647899000206962,780.6734981999907,None,,,,,,,o,001,2021_Jul_08_1436,toilet,2021.1.3,99.90459111008592,
180,180,4,-4,1.03,,,,,3,0,3,0,0,2,2,39,,,,,,,,,,,,,,,,,,,,,,,782.0444979000022,None,782.0444979000022,None,781.5441641999932,None,j,0.38600270001916215,782.0444979000022,None,,,,,,,o,001,2021_Jul_08_1436,toilet,2021.1.3,99.90459111008592,
0,180,4,-4,1.03,,,,,3,0,3,0,0,3,3,25,,,,,,,,,,,,,,,,,,,,,,,783.4453790000116,None,783.4453790000116,None,782.9450365999946,None,f,0.8248828999930993,783.4453790000116,None,,,,,,,o,001,2021_Jul_08_1436,toilet,2021.1.3,99.90459111008592,
180,180,4,-4,1.06,,,,,3,0,3,0,0,4,4,40,,,,,,,,,,,,,,,,,,,,,,,785.2766197999881,None,785.2766197999881,None,784.7762805999955,None,f,0.43374219999532215,785.2766197999881,None,,,,,,,o,001,2021_Jul_08_1436,toilet,2021.1.3,99.90459111008592,
180,180,-4,4,0.85,,,,,3,0,3,0,0,5,5,28,,,,,,,,,,,,,,,,,,,,,,,786.7275822999945,None,786.7275822999945,None,786.2272632000095,None,f,0.3587485000025481,786.7275822999945,None,,,,,,,o,001,2021_Jul_08_1436,toilet,2021.1.3,99.90459111008592,
180,0,-4,4,0.97,,,,,3,0,3,0,0,6,6,44,,,,,,,,,,,,,,,,,,,,,,,788.0885981000029,None,788.0885981000029,None,787.5881848999998,None,f,1.0138674000045285,788.0885981000029,None,,,,,,,o,001,2021_Jul_08_1436,toilet,2021.1.3,99.90459111008592,
180,0,-4,4,1.0,,,,,3,0,3,0,0,7,7,45,,,,,,,,,,,,,,,,,,,,,,,790.1198948000092,None,790.1198948000092,None,789.6196446999966,None,j,0.6783963000052609,790.1198948000092,None,,,,,,,o,001,2021_Jul_08_1436,toilet,2021.1.3,99.90459111008592,
0,0,4,-4,0.85,,,,,3,0,3,0,0,8,8,7,,,,,,,,,,,,,,,,,,,,,,,791.8010096999933,None,791.8010096999933,None,791.3007018000062,None,j,0.469412900012685,791.8010096999933,None,,,,,,,o,001,2021_Jul_08_1436,toilet,2021.1.3,99.90459111008592,
0,180,-4,4,0.97,,,,,3,0,3,0,0,9,9,16,,,,,,,,,,,,,,,,,,,,,,,793.2820394999871,None,793.2820394999871,None,792.7817006999976,None,f,1.0044052999874111,793.2820394999871,None,,,,,,,o,001,2021_Jul_08_1436,toilet,2021.1.3,99.90459111008592,
180,0,4,-4,0.85,,,,,3,0,3,0,0,10,10,49,,,,,,,,,,,,,,,,,,,,,,,795.3035206999921,None,795.3035206999921,None,794.8030740999966,None,j,0.6948954000254162,795.3035206999921,None,,,,,,,o,001,2021_Jul_08_1436,toilet,2021.1.3,99.90459111008592,
0,180,-4,4,1.06,,,,,3,0,3,0,0,11,11,19,,,,,,,,,,,,,,,,,,,,,,,797.0146632000105,None,797.0146632000105,None,796.5142349000089,None,j,1.2876451000047382,797.0146632000105,None,,,,,,,o,001,2021_Jul_08_1436,toilet,2021.1.3,99.90459111008592,
180,0,4,-4,1.15,,,,,3,0,3,0,0,12,12,55,,,,,,,,,,,,,,,,,,,,,,,799.3061291000049,None,799.3061291000049,None,798.805787499994,None,f,0.4201807999925222,799.3061291000049,None,,,,,,,o,001,2021_Jul_08_1436,toilet,2021.1.3,99.90459111008592,
0,0,-4,4,0.94,,,,,3,0,3,0,0,13,13,1,,,,,,,,,,,,,,,,,,,,,,,800.7370990999916,None,800.7370990999916,None,800.2367618999851,None,f,0.6212096999806818,800.7370990999916,None,,,,,,,o,001,2021_Jul_08_1436,toilet,2021.1.3,99.90459111008592,
180,180,4,-4,1.0,,,,,3,0,3,0,0,14,14,38,,,,,,,,,,,,,,,,,,,,,,,802.3582023000054,None,802.3582023000054,None,801.857863000012,None,f,0.6801595000142697,802.3582023000054,None,,,,,,,o,001,2021_Jul_08_1436,toilet,2021.1.3,99.90459111008592,
180,0,4,-4,1.03,,,,,3,0,3,0,0,15,15,53,,,,,,,,,,,,,,,,,,,,,,,804.0493503999896,None,804.0493503999896,None,803.5491024999938,None,j,1.6448973000224214,804.0493503999896,None,,,,,,,o,001,2021_Jul_08_1436,toilet,2021.1.3,99.90459111008592,
0,180,-4,4,1.15,,,,,3,0,3,0,0,16,16,20,,,,,,,,,,,,,,,,,,,,,,,806.701146300009,None,806.701146300009,None,806.2007913000125,None,j,0.38509729999350384,806.701146300009,None,,,,,,,o,001,2021_Jul_08_1436,toilet,2021.1.3,99.90459111008592,
180,180,-4,4,0.94,,,,,3,0,3,0,0,17,17,29,,,,,,,,,,,,,,,,,,,,,,,808.0920897999895,None,808.0920897999895,None,807.5917532999883,None,f,0.3543160999834072,808.0920897999895,None,,,,,,,o,001,2021_Jul_08_1436,toilet,2021.1.3,99.90459111008592,
180,0,4,-4,1.0,,,,,3,0,3,0,0,18,18,52,,,,,,,,,,,,,,,,,,,,,,,809.463021500007,None,809.463021500007,None,808.9626819000114,None,j,2.631222299998626,809.463021500007,None,,,,,,,o,001,2021_Jul_08_1436,toilet,2021.1.3,99.90459111008592,
180,180,-4,4,1.03,,,,,3,0,3,0,0,19,19,32,,,,,,,,,,,,,,,,,,,,,,,813.0954807999951,None,813.0954807999951,None,812.5951427000109,None,j,0.7427701000124216,813.0954807999951,None,,,,,,,o,001,2021_Jul_08_1436,toilet,2021.1.3,99.90459111008592,
0,0,4,-4,1.06,,,,,3,0,3,0,0,20,20,12,,,,,,,,,,,,,,,,,,,,,,,814.8466708000051,None,814.8466708000051,None,814.346331400011,None,f,0.5116989999951329,814.8466708000051,None,,,,,,,o,001,2021_Jul_08_1436,toilet,2021.1.3,99.90459111008592,
180,180,4,-4,0.94,,,,,3,0,3,0,0,21,21,36,,,,,,,,,,,,,,,,,,,,,,,816.3677005000063,None,816.3677005000063,None,815.8673605000076,None,j,0.462625999993179,816.3677005000063,None,,,,,,,o,001,2021_Jul_08_1436,toilet,2021.1.3,99.90459111008592,
180,0,-4,4,1.03,,,,,3,0,3,0,0,22,22,46,,,,,,,,,,,,,,,,,,,,,,,817.848705499986,None,817.848705499986,None,817.3484084999945,None,j,1.6855600999842864,817.848705499986,None,,,,,,,o,001,2021_Jul_08_1436,toilet,2021.1.3,99.90459111008592,
180,0,-4,4,1.06,,,,,3,0,3,0,0,23,23,47,,,,,,,,,,,,,,,,,,,,,,,820.5505355999921,None,820.5505355999921,None,820.0501965000003,None,j,0.5838087000011001,820.5505355999921,None,,,,,,,o,001,2021_Jul_08_1436,toilet,2021.1.3,99.90459111008592,
0,180,-4,4,0.85,,,,,3,0,3,0,0,24,24,14,,,,,,,,,,,,,,,,,,,,,,,822.1416146999982,None,822.1416146999982,None,821.6412784999993,None,f,0.35271380000631325,822.1416146999982,None,,,,,,,o,001,2021_Jul_08_1436,toilet,2021.1.3,99.90459111008592,
0,0,-4,4,1.0,,,,,3,0,3,0,0,25,25,3,,,,,,,,,,,,,,,,,,,,,,,823.5125475999957,None,823.5125475999957,None,823.0122131000098,None,f,0.5979174000094645,823.5125475999957,None,,,,,,,o,001,2021_Jul_08_1436,toilet,2021.1.3,99.90459111008592,
0,180,4,-4,1.0,,,,,3,0,3,0,0,26,26,24,,,,,,,,,,,,,,,,,,,,,,,825.1237198000017,None,825.1237198000017,None,824.6233049999864,None,j,3.0506556000036653,825.1237198000017,None,,,,,,,o,001,2021_Jul_08_1436,toilet,2021.1.3,99.90459111008592,
180,180,4,-4,0.97,,,,,3,0,3,0,0,27,27,37,,,,,,,,,,,,,,,,,,,,,,,829.1763875999895,None,829.1763875999895,None,828.6760398999904,None,j,0.629925799992634,829.1763875999895,None,,,,,,,o,001,2021_Jul_08_1436,toilet,2021.1.3,99.90459111008592,
0,0,4,-4,1.0,,,,,3,0,3,0,0,28,28,10,,,,,,,,,,,,,,,,,,,,,,,830.807495599991,None,830.807495599991,None,830.3071538000077,None,f,1.7188174000184517,830.807495599991,None,,,,,,,o,001,2021_Jul_08_1436,toilet,2021.1.3,99.90459111008592,
180,0,4,-4,1.06,,,,,3,0,3,0,0,29,29,54,,,,,,,,,,,,,,,,,,,,,,,833.5393445999944,None,833.5393445999944,None,833.0390998999937,None,f,0.4910426000133157,833.5393445999944,None,,,,,,,o,001,2021_Jul_08_1436,toilet,2021.1.3,99.90459111008592,
0,180,4,-4,1.06,,,,,3,0,3,0,0,30,30,26,,,,,,,,,,,,,,,,,,,,,,,835.0403624000028,None,835.0403624000028,None,834.5400245999917,None,f,0.9259590999863576,835.0403624000028,None,,,,,,,o,001,2021_Jul_08_1436,toilet,2021.1.3,99.90459111008592,
180,0,4,-4,0.94,,,,,3,0,3,0,0,31,31,50,,,,,,,,,,,,,,,,,,,,,,,836.971678300004,None,836.971678300004,None,836.471334300004,None,j,0.4507068000093568,836.971678300004,None,,,,,,,o,001,2021_Jul_08_1436,toilet,2021.1.3,99.90459111008592,
0,0,-4,4,0.97,,,,,3,0,3,0,0,32,32,2,,,,,,,,,,,,,,,,,,,,,,,838.4326631999866,None,838.4326631999866,None,837.9323223000101,None,f,0.4457574999833014,838.4326631999866,None,,,,,,,o,001,2021_Jul_08_1436,toilet,2021.1.3,99.90459111008592,
0,180,-4,4,1.03,,,,,3,0,3,0,0,33,33,18,,,,,,,,,,,,,,,,,,,,,,,839.8936595999985,None,839.8936595999985,None,839.3933136000123,None,j,0.44067680000443943,839.8936595999985,None,,,,,,,o,001,2021_Jul_08_1436,toilet,2021.1.3,99.90459111008592,
0,0,4,-4,0.97,,,,,3,0,3,0,0,34,34,9,,,,,,,,,,,,,,,,,,,,,,,841.3447034000128,None,841.3447034000128,None,840.8443780000089,None,f,0.541629399987869,841.3447034000128,None,,,,,,,o,001,2021_Jul_08_1436,toilet,2021.1.3,99.90459111008592,
180,0,-4,4,0.85,,,,,3,0,3,0,0,35,35,42,,,,,,,,,,,,,,,,,,,,,,,842.8856853999896,None,842.8856853999896,None,842.3853451999894,None,f,0.4085443999792915,842.8856853999896,None,,,,,,,o,001,2021_Jul_08_1436,toilet,2021.1.3,99.90459111008592,
180,180,-4,4,1.06,,,,,3,0,3,0,0,36,36,33,,,,,,,,,,,,,,,,,,,,,,,844.2966397999844,None,844.2966397999844,None,843.796300099988,None,j,0.4537451999785844,844.2966397999844,None,,,,,,,o,001,2021_Jul_08_1436,toilet,2021.1.3,99.90459111008592,
0,0,-4,4,1.06,,,,,3,0,3,0,0,37,37,5,,,,,,,,,,,,,,,,,,,,,,,845.7576304000104,None,845.7576304000104,None,845.267299500003,None,j,0.48061949998373166,845.7576304000104,None,,,,,,,o,001,2021_Jul_08_1436,toilet,2021.1.3,99.90459111008592,
0,0,4,-4,1.03,,,,,3,0,3,0,0,38,38,11,,,,,,,,,,,,,,,,,,,,,,,847.2386508999916,None,847.2386508999916,None,846.7382976000081,None,f,0.5037668999866582,847.2386508999916,None,,,,,,,o,001,2021_Jul_08_1436,toilet,2021.1.3,99.90459111008592,
0,180,4,-4,0.85,,,,,3,0,3,0,0,39,39,21,,,,,,,,,,,,,,,,,,,,,,,848.7596757999854,None,848.7596757999854,None,848.259408199985,None,j,0.43856499998946674,848.7596757999854,None,,,,,,,o,001,2021_Jul_08_1436,toilet,2021.1.3,99.90459111008592,
180,0,4,-4,0.97,,,,,3,0,3,0,0,40,40,51,,,,,,,,,,,,,,,,,,,,,,,850.2006723000086,None,850.2006723000086,None,849.700305300008,None,j,0.5335524999827612,850.2006723000086,None,,,,,,,o,001,2021_Jul_08_1436,toilet,2021.1.3,99.90459111008592,
180,180,-4,4,1.15,,,,,3,0,3,0,0,41,41,34,,,,,,,,,,,,,,,,,,,,,,,851.7416889999877,None,851.7416889999877,None,851.2413529999903,None,j,0.35264359999564476,851.7416889999877,None,,,,,,,o,001,2021_Jul_08_1436,toilet,2021.1.3,99.90459111008592,
0,180,4,-4,1.15,,,,,3,0,3,0,0,42,42,27,,,,,,,,,,,,,,,,,,,,,,,853.1126203000022,None,853.1126203000022,None,852.6122821999888,None,f,0.4058264000050258,853.1126203000022,None,,,,,,,o,001,2021_Jul_08_1436,toilet,2021.1.3,99.90459111008592,
0,0,-4,4,1.15,,,,,3,0,3,0,0,43,43,6,,,,,,,,,,,,,,,,,,,,,,,854.533582700009,None,854.533582700009,None,854.0332438999903,None,j,0.31269130000146106,854.533582700009,None,,,,,,,o,001,2021_Jul_08_1436,toilet,2021.1.3,99.90459111008592,
0,0,-4,4,0.85,,,,,3,0,3,0,0,44,44,0,,,,,,,,,,,,,,,,,,,,,,,855.8545716000081,None,855.8545716000081,None,855.3542291999911,None,f,0.495648500014795,855.8545716000081,None,,,,,,,o,001,2021_Jul_08_1436,toilet,2021.1.3,99.90459111008592,
0,180,-4,4,0.94,,,,,3,0,3,0,0,45,45,15,,,,,,,,,,,,,,,,,,,,,,,857.3554948999954,None,857.3554948999954,None,856.8551571999851,None,j,0.8187370000232477,857.3554948999954,None,,,,,,,o,001,2021_Jul_08_1436,toilet,2021.1.3,99.90459111008592,
180,180,-4,4,1.0,,,,,3,0,3,0,0,46,46,31,,,,,,,,,,,,,,,,,,,,,,,859.1767368000001,None,859.1767368000001,None,858.676389900007,None,f,0.5815669000148773,859.1767368000001,None,,,,,,,o,001,2021_Jul_08_1436,toilet,2021.1.3,99.90459111008592,
180,0,-4,4,0.94,,,,,3,0,3,0,0,47,47,43,,,,,,,,,,,,,,,,,,,,,,,860.7578133000061,None,860.7578133000061,None,860.2574631999887,None,f,0.37657019999460317,860.7578133000061,None,,,,,,,o,001,2021_Jul_08_1436,toilet,2021.1.3,99.90459111008592,
180,180,-4,4,0.97,,,,,3,0,3,0,0,48,48,30,,,,,,,,,,,,,,,,,,,,,,,862.1488279000041,None,862.1488279000041,None,861.6483825999894,None,f,0.521526199998334,862.1488279000041,None,,,,,,,o,001,2021_Jul_08_1436,toilet,2021.1.3,99.90459111008592,
180,180,4,-4,0.85,,,,,3,0,3,0,0,49,49,35,,,,,,,,,,,,,,,,,,,,,,,863.6798233999871,None,863.6798233999871,None,863.1795171000122,None,j,0.4945292000193149,863.6798233999871,None,,,,,,,o,001,2021_Jul_08_1436,toilet,2021.1.3,99.90459111008592,
0,0,4,-4,1.15,,,,,3,0,3,0,0,50,50,13,,,,,,,,,,,,,,,,,,,,,,,865.1808031999972,None,865.1808031999972,None,864.6804645000084,None,f,0.513536300015403,865.1808031999972,None,,,,,,,o,001,2021_Jul_08_1436,toilet,2021.1.3,99.90459111008592,
0,180,4,-4,0.94,,,,,3,0,3,0,0,51,51,22,,,,,,,,,,,,,,,,,,,,,,,866.7118718999845,None,866.7118718999845,None,866.2115063999954,None,j,0.3905413000029512,866.7118718999845,None,,,,,,,o,001,2021_Jul_08_1436,toilet,2021.1.3,99.90459111008592,
0,180,-4,4,1.0,,,,,3,0,3,0,0,52,52,17,,,,,,,,,,,,,,,,,,,,,,,868.1127959000005,None,868.1127959000005,None,867.6124547999934,None,j,0.6694065000046976,868.1127959000005,None,,,,,,,o,001,2021_Jul_08_1436,toilet,2021.1.3,99.90459111008592,
0,0,4,-4,0.94,,,,,3,0,3,0,0,53,53,8,,,,,,,,,,,,,,,,,,,,,,,869.7839396999916,None,869.7839396999916,None,869.283666400006,None,j,1.254356599994935,869.7839396999916,None,,,,,,,o,001,2021_Jul_08_1436,toilet,2021.1.3,99.90459111008592,
0,0,-4,4,1.03,,,,,3,0,3,0,0,54,54,4,,,,,,,,,,,,,,,,,,,,,,,872.0554739999934,None,872.0554739999934,None,871.5551307999995,None,f,0.7267652000009548,872.0554739999934,None,,,,,,,o,001,2021_Jul_08_1436,toilet,2021.1.3,99.90459111008592,
180,0,-4,4,1.15,,,,,3,0,3,0,0,55,55,48,,,,,,,,,,,,,,,,,,,,,,,873.786639900005,None,873.786639900005,None,873.2863002000086,None,j,0.819661100016674,873.786639900005,None,,,,,,,o,001,2021_Jul_08_1436,toilet,2021.1.3,99.90459111008592,
180,0,4,-4,1.0,,,,,3,0,3,0,1,0,56,52,,,,,,,,,,,,,,,,,,,,,,,875.6178822999937,None,875.6178822999937,None,875.1175408000126,None,j,1.9324861000059173,875.6178822999937,None,,,,,,,o,001,2021_Jul_08_1436,toilet,2021.1.3,99.90459111008592,
0,180,-4,4,1.15,,,,,3,0,3,0,1,1,57,20,,,,,,,,,,,,,,,,,,,,,,,878.5699152000016,None,878.5699152000016,None,878.0695456000103,None,j,0.37229739999747835,878.5699152000016,None,,,,,,,o,001,2021_Jul_08_1436,toilet,2021.1.3,99.90459111008592,
0,0,-4,4,1.0,,,,,3,0,3,0,1,2,58,3,,,,,,,,,,,,,,,,,,,,,,,879.9508165000007,None,879.9508165000007,None,879.450505899993,None,f,0.3995526999933645,879.9508165000007,None,,,,,,,o,001,2021_Jul_08_1436,toilet,2021.1.3,99.90459111008592,
0,0,-4,4,1.06,,,,,3,0,3,0,1,3,59,5,,,,,,,,,,,,,,,,,,,,,,,881.3517729000014,None,881.3517729000014,None,880.8514276999922,None,j,0.43860720001976006,881.3517729000014,None,,,,,,,o,001,2021_Jul_08_1436,toilet,2021.1.3,99.90459111008592,
