ori_st,ori_pr,xpos_st,xpos_pr,size,trials_3.thisRepN,trials_3.thisTrialN,trials_3.thisN,trials_3.thisIndex,trials_2.thisRepN,trials_2.thisTrialN,trials_2.thisN,trials_2.thisIndex,trials.thisRepN,trials.thisTrialN,trials.thisN,trials.thisIndex,wel_pra.started,wel_pra.stopped,resp_wel.keys,resp_wel.rt,resp_wel.started,resp_wel.stopped,standard_pra.started,standard_pra.stopped,prove_pra.started,prove_pra.stopped,fixation.started,fixation.stopped,resp_pra.keys,resp_pra.rt,resp_pra.started,resp_pra.stopped,instr.started,instr.stopped,key_resp_2.keys,key_resp_2.rt,key_resp_2.started,key_resp_2.stopped,standard.started,standard.stopped,probe.started,probe.stopped,text.started,text.stopped,resp.keys,resp.rt,resp.started,resp.stopped,text_2.started,text_2.stopped,key_resp.keys,key_resp.rt,key_resp.started,key_resp.stopped,text_3.started,text_3.stopped,key_resp_3.keys,key_resp_3.rt,key_resp_3.started,key_resp_3.stopped,participant,session,date,expName,psychopyVersion,frameRate,
,,,,,,,,,,,,,,,,,13.186752600013278,None,space,162.77843789999315,13.186752600013278,None,,,,,,,,,,,,,,,,,,,,,,,,,,,,,,,,,,,,,,,n,001,2021_Jul_07_1437,toilet,2021.1.3,99.89451140095132,
180,180,-4,4,0.85,0,0,0,8,,,,,,,,,,,,,,,176.98764810001012,None,176.98764810001012,None,176.4873130000051,None,f,4.449499200010905,176.98764810001012,None,,,,,,,,,,,,,,,,,,,,,,,,,,,,,n,001,2021_Jul_07_1437,toilet,2021.1.3,99.89451140095132,
0,180,4,-4,1.15,0,1,1,7,,,,,,,,,,,,,,,182.44135560000723,None,182.44135560000723,None,181.94101750000846,None,f,1.4118305999872973,182.44135560000723,None,,,,,,,,,,,,,,,,,,,,,,,,,,,,,n,001,2021_Jul_07_1437,toilet,2021.1.3,99.89451140095132,
0,0,-4,4,1.15,0,2,2,2,,,,,,,,,,,,,,,184.8630062000011,None,184.8630062000011,None,184.3626576000097,None,j,13.358206300006714,184.8630062000011,None,,,,,,,,,,,,,,,,,,,,,,,,,,,,,n,001,2021_Jul_07_1437,toilet,2021.1.3,99.89451140095132,
0,180,-4,4,0.85,0,3,3,4,,,,,,,,,,,,,,,199.23275410001224,None,199.23275410001224,None,198.7324113000068,None,f,0.8284876999969129,199.23275410001224,None,,,,,,,,,,,,,,,,,,,,,,,,,,,,,n,001,2021_Jul_07_1437,toilet,2021.1.3,99.89451140095132,
0,180,-4,4,1.15,0,4,4,6,,,,,,,,,,,,,,,201.0739969999995,None,201.0739969999995,None,200.5737572000071,None,j,0.5872050000034506,201.0739969999995,None,,,,,,,,,,,,,,,,,,,,,,,,,,,,,n,001,2021_Jul_07_1437,toilet,2021.1.3,99.89451140095132,
180,180,-4,4,1.15,0,5,5,10,,,,,,,,,,,,,,,202.6750877000013,None,202.6750877000013,None,202.17475980000745,None,j,0.5060666000063065,202.6750877000013,None,,,,,,,,,,,,,,,,,,,,,,,,,,,,,n,001,2021_Jul_07_1437,toilet,2021.1.3,99.89451140095132,
180,0,-4,4,0.85,0,6,6,13,,,,,,,,,,,,,,,204.18610360000457,None,204.18610360000457,None,203.68578040000284,None,f,0.6432327999937115,204.18610360000457,None,,,,,,,,,,,,,,,,,,,,,,,,,,,,,n,001,2021_Jul_07_1437,toilet,2021.1.3,99.89451140095132,
180,180,-4,4,0.85,0,7,7,9,,,,,,,,,,,,,,,205.8372359000059,None,205.8372359000059,None,205.33689690000028,None,f,0.5599802999931853,205.8372359000059,None,,,,,,,,,,,,,,,,,,,,,,,,,,,,,n,001,2021_Jul_07_1437,toilet,2021.1.3,99.89451140095132,
180,0,-4,4,1.15,0,8,8,15,,,,,,,,,,,,,,,207.408313500011,None,207.408313500011,None,206.9079694000102,None,j,0.5730345000047237,207.408313500011,None,,,,,,,,,,,,,,,,,,,,,,,,,,,,,n,001,2021_Jul_07_1437,toilet,2021.1.3,99.89451140095132,
0,180,4,-4,0.85,0,9,9,5,,,,,,,,,,,,,,,208.9994638000062,None,208.9994638000062,None,208.49908150000556,None,j,0.5018509999936214,208.9994638000062,None,,,,,,,,,,,,,,,,,,,,,,,,,,,,,n,001,2021_Jul_07_1437,toilet,2021.1.3,99.89451140095132,
0,0,4,-4,1.15,0,10,10,3,,,,,,,,,,,,,,,210.51041149999946,None,210.51041149999946,None,210.01007010000467,None,f,0.9747390999982599,210.51041149999946,None,,,,,,,,,,,,,,,,,,,,,,,,,,,,,n,001,2021_Jul_07_1437,toilet,2021.1.3,99.89451140095132,
180,0,-4,4,1.15,0,11,11,14,,,,,,,,,,,,,,,212.4917545000062,None,212.4917545000062,None,211.99141590000363,None,j,0.5294694000040181,212.4917545000062,None,,,,,,,,,,,,,,,,,,,,,,,,,,,,,n,001,2021_Jul_07_1437,toilet,2021.1.3,99.89451140095132,
180,180,-4,4,1.15,0,12,12,11,,,,,,,,,,,,,,,214.03280030000315,None,214.03280030000315,None,213.53246250000666,None,j,0.5244793000019854,214.03280030000315,None,,,,,,,,,,,,,,,,,,,,,,,,,,,,,n,001,2021_Jul_07_1437,toilet,2021.1.3,99.89451140095132,
180,0,-4,4,0.85,0,13,13,12,,,,,,,,,,,,,,,215.58393840001372,None,215.58393840001372,None,215.08351790001325,None,f,0.4453925999987405,215.58393840001372,None,,,,,,,,,,,,,,,,,,,,,,,,,,,,,n,001,2021_Jul_07_1437,toilet,2021.1.3,99.89451140095132,
0,0,4,-4,0.85,0,14,14,1,,,,,,,,,,,,,,,217.04488169999968,None,217.04488169999968,None,216.54450840000936,None,j,0.39239150000503287,217.04488169999968,None,,,,,,,,,,,,,,,,,,,,,,,,,,,,,n,001,2021_Jul_07_1437,toilet,2021.1.3,99.89451140095132,
0,0,-4,4,0.85,0,15,15,0,,,,,,,,,,,,,,,218.445804700008,None,218.445804700008,None,217.9454587000073,None,f,0.4953195999987656,218.445804700008,None,,,,,,,,,,,,,,,,,,,,,,,,,,,,,n,001,2021_Jul_07_1437,toilet,2021.1.3,99.89451140095132,
180,180,4,-4,1.15,,,,,0,0,0,0,0,0,0,41,,,,,,,,,,,,,,,,,218.95614970001043,None,space,76.33745270001236,218.95614970001043,None,296.3187553000025,None,296.3187553000025,None,295.81831780000357,None,f,0.6544219000061275,296.3187553000025,None,,,,,,,,,,,,,n,001,2021_Jul_07_1437,toilet,2021.1.3,99.89451140095132,
180,180,4,-4,0.85,,,,,0,0,0,0,0,1,1,35,,,,,,,,,,,,,,,,,,,,,,,297.98980049999955,None,297.98980049999955,None,297.4895350000006,None,j,0.439413300002343,297.98980049999955,None,,,,,,,,,,,,,n,001,2021_Jul_07_1437,toilet,2021.1.3,99.89451140095132,
0,0,-4,4,1.15,,,,,0,0,0,0,0,2,2,6,,,,,,,,,,,,,,,,,,,,,,,299.43079790000047,None,299.43079790000047,None,298.9304364000127,None,j,0.40642480000678916,299.43079790000047,None,,,,,,,,,,,,,n,001,2021_Jul_07_1437,toilet,2021.1.3,99.89451140095132,
0,180,-4,4,1.0,,,,,0,0,0,0,0,3,3,17,,,,,,,,,,,,,,,,,,,,,,,300.8417267000041,None,300.8417267000041,None,300.34138630000234,None,j,0.46753609999723267,300.8417267000041,None,,,,,,,,,,,,,n,001,2021_Jul_07_1437,toilet,2021.1.3,99.89451140095132,
180,0,-4,4,0.85,,,,,0,0,0,0,0,4,4,42,,,,,,,,,,,,,,,,,,,,,,,302.3327436000109,None,302.3327436000109,None,301.8324006000039,None,f,0.5283480000070995,302.3327436000109,None,,,,,,,,,,,,,n,001,2021_Jul_07_1437,toilet,2021.1.3,99.89451140095132,
180,180,-4,4,1.06,,,,,0,0,0,0,0,5,5,33,,,,,,,,,,,,,,,,,,,,,,,303.8638520000095,None,303.8638520000095,None,303.3634444000054,None,j,0.4533750999980839,303.8638520000095,None,,,,,,,,,,,,,n,001,2021_Jul_07_1437,toilet,2021.1.3,99.89451140095132,
180,180,-4,4,1.15,,,,,0,0,0,0,0,6,6,34,,,,,,,,,,,,,,,,,,,,,,,305.33479850000003,None,305.33479850000003,None,304.83453660001396,None,j,0.3904674000077648,305.33479850000003,None,,,,,,,,,,,,,n,001,2021_Jul_07_1437,toilet,2021.1.3,99.89451140095132,
0,180,-4,4,0.94,,,,,0,0,0,0,0,7,7,15,,,,,,,,,,,,,,,,,,,,,,,306.7257326000108,None,306.7257326000108,None,306.22538930000155,None,f,0.5033878000103869,306.7257326000108,None,,,,,,,,,,,,,n,001,2021_Jul_07_1437,toilet,2021.1.3,99.89451140095132,
0,180,4,-4,1.03,,,,,0,0,0,0,0,8,8,25,,,,,,,,,,,,,,,,,,,,,,,308.2367488000018,None,308.2367488000018,None,307.7364222000033,None,j,0.5766113999998197,308.2367488000018,None,,,,,,,,,,,,,n,001,2021_Jul_07_1437,toilet,2021.1.3,99.89451140095132,
180,180,-4,4,0.97,,,,,0,0,0,0,0,9,9,30,,,,,,,,,,,,,,,,,,,,,,,309.8278309000016,None,309.8278309000016,None,309.327489400006,None,f,0.7133204999990994,309.8278309000016,None,,,,,,,,,,,,,n,001,2021_Jul_07_1437,toilet,2021.1.3,99.89451140095132,
0,0,-4,4,0.85,,,,,0,0,0,0,0,10,10,0,,,,,,,,,,,,,,,,,,,,,,,311.54907070001354,None,311.54907070001354,None,311.04874470000505,None,f,0.4640983999997843,311.54907070001354,None,,,,,,,,,,,,,n,001,2021_Jul_07_1437,toilet,2021.1.3,99.89451140095132,
0,0,4,-4,1.15,,,,,0,0,0,0,0,11,11,13,,,,,,,,,,,,,,,,,,,,,,,313.0200007000094,None,313.0200007000094,None,312.5197509000136,None,f,0.4171313000115333,313.0200007000094,None,,,,,,,,,,,,,n,001,2021_Jul_07_1437,toilet,2021.1.3,99.89451140095132,
0,180,-4,4,1.03,,,,,0,0,0,0,0,12,12,18,,,,,,,,,,,,,,,,,,,,,,,314.4409616000048,None,314.4409616000048,None,313.94061870001315,None,j,0.40414649999001995,314.4409616000048,None,,,,,,,,,,,,,n,001,2021_Jul_07_1437,toilet,2021.1.3,99.89451140095132,
0,0,-4,4,0.94,,,,,0,0,0,0,0,13,13,1,,,,,,,,,,,,,,,,,,,,,,,315.8519183000026,None,315.8519183000026,None,315.35158060000686,None,f,0.465338599999086,315.8519183000026,None,,,,,,,,,,,,,n,001,2021_Jul_07_1437,toilet,2021.1.3,99.89451140095132,
0,0,4,-4,0.97,,,,,0,0,0,0,0,14,14,9,,,,,,,,,,,,,,,,,,,,,,,317.3329284000065,None,317.3329284000065,None,316.83258830000705,None,j,1.5762273000000278,317.3329284000065,None,,,,,,,,,,,,,n,001,2021_Jul_07_1437,toilet,2021.1.3,99.89451140095132,
0,180,4,-4,1.15,,,,,0,0,0,0,0,15,15,27,,,,,,,,,,,,,,,,,,,,,,,319.91475990001345,None,319.91475990001345,None,319.4144157000119,None,f,0.5144811000063783,319.91475990001345,None,,,,,,,,,,,,,n,001,2021_Jul_07_1437,toilet,2021.1.3,99.89451140095132,
0,180,4,-4,0.97,,,,,0,0,0,0,0,16,16,23,,,,,,,,,,,,,,,,,,,,,,,321.43570960000216,None,321.43570960000216,None,320.93536850000964,None,j,0.3853551000065636,321.43570960000216,None,,,,,,,,,,,,,n,001,2021_Jul_07_1437,toilet,2021.1.3,99.89451140095132,
180,180,-4,4,0.85,,,,,0,0,0,0,0,17,17,28,,,,,,,,,,,,,,,,,,,,,,,322.82665350000025,None,322.82665350000025,None,322.32635310001206,None,f,0.4824771999992663,322.82665350000025,None,,,,,,,,,,,,,n,001,2021_Jul_07_1437,toilet,2021.1.3,99.89451140095132,
0,180,-4,4,1.06,,,,,0,0,0,0,0,18,18,19,,,,,,,,,,,,,,,,,,,,,,,324.32767030000105,None,324.32767030000105,None,323.8273337000137,None,j,0.3736516999924788,324.32767030000105,None,,,,,,,,,,,,,n,001,2021_Jul_07_1437,toilet,2021.1.3,99.89451140095132,
180,180,-4,4,0.94,,,,,0,0,0,0,0,19,19,29,,,,,,,,,,,,,,,,,,,,,,,325.7187055000104,None,325.7187055000104,None,325.21827810000104,None,f,0.8384464000118896,325.7187055000104,None,,,,,,,,,,,,,n,001,2021_Jul_07_1437,toilet,2021.1.3,99.89451140095132,
180,0,-4,4,1.03,,,,,0,0,0,0,0,20,20,46,,,,,,,,,,,,,,,,,,,,,,,327.5698712000012,None,327.5698712000012,None,327.06960660000914,None,j,0.3953120999940438,327.5698712000012,None,,,,,,,,,,,,,n,001,2021_Jul_07_1437,toilet,2021.1.3,99.89451140095132,
180,0,-4,4,0.94,,,,,0,0,0,0,0,21,21,43,,,,,,,,,,,,,,,,,,,,,,,328.9708265000081,None,328.9708265000081,None,328.4704885000101,None,j,0.4502565000002505,328.9708265000081,None,,,,,,,,,,,,,n,001,2021_Jul_07_1437,toilet,2021.1.3,99.89451140095132,
180,180,-4,4,1.0,,,,,0,0,0,0,0,22,22,31,,,,,,,,,,,,,,,,,,,,,,,330.42180740000913,None,330.42180740000913,None,329.9214730000094,None,j,0.4233769999991637,330.42180740000913,None,,,,,,,,,,,,,n,001,2021_Jul_07_1437,toilet,2021.1.3,99.89451140095132,
0,0,4,-4,0.85,,,,,0,0,0,0,0,23,23,7,,,,,,,,,,,,,,,,,,,,,,,331.8728106000053,None,331.8728106000053,None,331.37245750000875,None,j,0.39626639999914914,331.8728106000053,None,,,,,,,,,,,,,n,001,2021_Jul_07_1437,toilet,2021.1.3,99.89451140095132,
0,0,4,-4,1.06,,,,,0,0,0,0,0,24,24,12,,,,,,,,,,,,,,,,,,,,,,,333.27376480000385,None,333.27376480000385,None,332.7735004000133,None,f,0.4834467000036966,333.27376480000385,None,,,,,,,,,,,,,n,001,2021_Jul_07_1437,toilet,2021.1.3,99.89451140095132,
180,0,-4,4,1.06,,,,,0,0,0,0,0,25,25,47,,,,,,,,,,,,,,,,,,,,,,,334.77476220000244,None,334.77476220000244,None,334.2744914000068,None,j,0.43846530000155326,334.77476220000244,None,,,,,,,,,,,,,n,001,2021_Jul_07_1437,toilet,2021.1.3,99.89451140095132,
180,0,4,-4,1.06,,,,,0,0,0,0,0,26,26,54,,,,,,,,,,,,,,,,,,,,,,,336.2157350000052,None,336.2157350000052,None,335.7153959000134,None,f,0.677484200001345,336.2157350000052,None,,,,,,,,,,,,,n,001,2021_Jul_07_1437,toilet,2021.1.3,99.89451140095132,
180,0,4,-4,0.94,,,,,0,0,0,0,0,27,27,50,,,,,,,,,,,,,,,,,,,,,,,337.8968762000004,None,337.8968762000004,None,337.3965397000138,None,j,0.45227219999651425,337.8968762000004,None,,,,,,,,,,,,,n,001,2021_Jul_07_1437,toilet,2021.1.3,99.89451140095132,
180,0,4,-4,1.0,,,,,0,0,0,0,0,28,28,52,,,,,,,,,,,,,,,,,,,,,,,339.36788660001184,None,339.36788660001184,None,338.8675411000004,None,f,0.8052796999982093,339.36788660001184,None,,,,,,,,,,,,,n,001,2021_Jul_07_1437,toilet,2021.1.3,99.89451140095132,
180,180,4,-4,0.94,,,,,0,0,0,0,0,29,29,36,,,,,,,,,,,,,,,,,,,,,,,341.179189100003,None,341.179189100003,None,340.6788685000065,None,j,0.44990180000604596,341.179189100003,None,,,,,,,,,,,,,n,001,2021_Jul_07_1437,toilet,2021.1.3,99.89451140095132,
180,0,4,-4,0.85,,,,,0,0,0,0,0,30,30,49,,,,,,,,,,,,,,,,,,,,,,,342.6300997000071,None,342.6300997000071,None,342.12976440000057,None,j,0.3749997999984771,342.6300997000071,None,,,,,,,,,,,,,n,001,2021_Jul_07_1437,toilet,2021.1.3,99.89451140095132,
0,0,-4,4,1.03,,,,,0,0,0,0,0,31,31,4,,,,,,,,,,,,,,,,,,,,,,,344.0110330000025,None,344.0110330000025,None,343.51069030001236,None,j,0.7862027999944985,344.0110330000025,None,,,,,,,,,,,,,n,001,2021_Jul_07_1437,toilet,2021.1.3,99.89451140095132,
0,180,-4,4,0.97,,,,,0,0,0,0,0,32,32,16,,,,,,,,,,,,,,,,,,,,,,,345.8122535000002,None,345.8122535000002,None,345.31191540000145,None,f,0.8888988999970024,345.8122535000002,None,,,,,,,,,,,,,n,001,2021_Jul_07_1437,toilet,2021.1.3,99.89451140095132,
0,180,-4,4,0.85,,,,,0,0,0,0,0,33,33,14,,,,,,,,,,,,,,,,,,,,,,,347.7135636000021,None,347.7135636000021,None,347.2132086000056,None,f,0.47565759999270085,347.7135636000021,None,,,,,,,,,,,,,n,001,2021_Jul_07_1437,toilet,2021.1.3,99.89451140095132,
0,180,-4,4,1.15,,,,,0,0,0,0,0,34,34,20,,,,,,,,,,,,,,,,,,,,,,,349.20456340000965,None,349.20456340000965,None,348.7042963000131,None,j,0.3765540000022156,349.20456340000965,None,,,,,,,,,,,,,n,001,2021_Jul_07_1437,toilet,2021.1.3,99.89451140095132,
180,0,4,-4,0.97,,,,,0,0,0,0,0,35,35,51,,,,,,,,,,,,,,,,,,,,,,,350.5854929000052,None,350.5854929000052,None,350.0851618000015,None,j,0.5638133999891579,350.5854929000052,None,,,,,,,,,,,,,n,001,2021_Jul_07_1437,toilet,2021.1.3,99.89451140095132,
0,0,4,-4,1.0,,,,,0,0,0,0,0,36,36,10,,,,,,,,,,,,,,,,,,,,,,,352.15656250000757,None,352.15656250000757,None,351.6562250999996,None,f,0.5125821000110591,352.15656250000757,None,,,,,,,,,,,,,n,001,2021_Jul_07_1437,toilet,2021.1.3,99.89451140095132,
180,180,4,-4,1.03,,,,,0,0,0,0,0,37,37,39,,,,,,,,,,,,,,,,,,,,,,,353.6875990000117,None,353.6875990000117,None,353.1872613000014,None,f,0.3894371000060346,353.6875990000117,None,,,,,,,,,,,,,n,001,2021_Jul_07_1437,toilet,2021.1.3,99.89451140095132,
180,180,4,-4,1.06,,,,,0,0,0,0,0,38,38,40,,,,,,,,,,,,,,,,,,,,,,,355.0786269000091,None,355.0786269000091,None,354.5782057000033,None,f,0.4546694999880856,355.0786269000091,None,,,,,,,,,,,,,n,001,2021_Jul_07_1437,toilet,2021.1.3,99.89451140095132,
180,0,-4,4,1.0,,,,,0,0,0,0,0,39,39,45,,,,,,,,,,,,,,,,,,,,,,,356.5396044000081,None,356.5396044000081,None,356.049290400013,None,f,0.5294486999919172,356.5396044000081,None,,,,,,,,,,,,,n,001,2021_Jul_07_1437,toilet,2021.1.3,99.89451140095132,
180,0,-4,4,1.15,,,,,0,0,0,0,0,40,40,48,,,,,,,,,,,,,,,,,,,,,,,358.07058120000875,None,358.07058120000875,None,357.5702372000087,None,j,0.39053400000557303,358.07058120000875,None,,,,,,,,,,,,,n,001,2021_Jul_07_1437,toilet,2021.1.3,99.89451140095132,
0,0,-4,4,1.06,,,,,0,0,0,0,0,41,41,5,,,,,,,,,,,,,,,,,,,,,,,359.46151780000946,None,359.46151780000946,None,358.96118340000976,None,j,0.48781550000421703,359.46151780000946,None,,,,,,,,,,,,,n,001,2021_Jul_07_1437,toilet,2021.1.3,99.89451140095132,
0,180,4,-4,0.85,,,,,0,0,0,0,0,42,42,21,,,,,,,,,,,,,,,,,,,,,,,360.9625381000078,None,360.9625381000078,None,360.46220840000024,None,j,0.3305426000006264,360.9625381000078,None,,,,,,,,,,,,,n,001,2021_Jul_07_1437,toilet,2021.1.3,99.89451140095132,
180,180,4,-4,0.97,,,,,0,0,0,0,0,43,43,37,,,,,,,,,,,,,,,,,,,,,,,362.29346720001195,None,362.29346720001195,None,361.7931016000075,None,j,0.40756099999998696,362.29346720001195,None,,,,,,,,,,,,,n,001,2021_Jul_07_1437,toilet,2021.1.3,99.89451140095132,
0,0,4,-4,1.03,,,,,0,0,0,0,0,44,44,11,,,,,,,,,,,,,,,,,,,,,,,363.70449120001285,None,363.70449120001285,None,363.20415630000934,None,f,0.4366328999894904,363.70449120001285,None,,,,,,,,,,,,,n,001,2021_Jul_07_1437,toilet,2021.1.3,99.89451140095132,
0,0,4,-4,0.94,,,,,0,0,0,0,0,45,45,8,,,,,,,,,,,,,,,,,,,,,,,365.14537810000184,None,365.14537810000184,None,364.6450429000106,None,j,0.35568540000531357,365.14537810000184,None,,,,,,,,,,,,,n,001,2021_Jul_07_1437,toilet,2021.1.3,99.89451140095132,
0,180,4,-4,1.0,,,,,0,0,0,0,0,46,46,24,,,,,,,,,,,,,,,,,,,,,,,366.5063016000058,None,366.5063016000058,None,366.0059644000139,None,f,0.3707566999946721,366.5063016000058,None,,,,,,,,,,,,,n,001,2021_Jul_07_1437,toilet,2021.1.3,99.89451140095132,
180,0,4,-4,1.03,,,,,0,0,0,0,0,47,47,53,,,,,,,,,,,,,,,,,,,,,,,367.87723710000864,None,367.87723710000864,None,367.37690020000446,None,f,0.6160798999917461,367.87723710000864,None,,,,,,,,,,,,,n,001,2021_Jul_07_1437,toilet,2021.1.3,99.89451140095132,
0,180,4,-4,0.94,,,,,0,0,0,0,0,48,48,22,,,,,,,,,,,,,,,,,,,,,,,369.5083416000125,None,369.5083416000125,None,369.00800240000535,None,j,0.3929688000062015,369.5083416000125,None,,,,,,,,,,,,,n,001,2021_Jul_07_1437,toilet,2021.1.3,99.89451140095132,
0,180,4,-4,1.06,,,,,0,0,0,0,0,49,49,26,,,,,,,,,,,,,,,,,,,,,,,370.91930530000536,None,370.91930530000536,None,370.41904560000694,None,f,0.4859934999985853,370.91930530000536,None,,,,,,,,,,,,,n,001,2021_Jul_07_1437,toilet,2021.1.3,99.89451140095132,
180,0,4,-4,1.15,,,,,0,0,0,0,0,50,50,55,,,,,,,,,,,,,,,,,,,,,,,372.42031830000633,None,372.42031830000633,None,371.9199770000123,None,f,0.5047291999944719,372.42031830000633,None,,,,,,,,,,,,,n,001,2021_Jul_07_1437,toilet,2021.1.3,99.89451140095132,
180,0,-4,4,0.97,,,,,0,0,0,0,0,51,51,44,,,,,,,,,,,,,,,,,,,,,,,373.9313252000138,None,373.9313252000138,None,373.4309984000138,None,j,0.6579830999980913,373.9313252000138,None,,,,,,,,,,,,,n,001,2021_Jul_07_1437,toilet,2021.1.3,99.89451140095132,
180,180,4,-4,1.0,,,,,0,0,0,0,0,52,52,38,,,,,,,,,,,,,,,,,,,,,,,375.6024773000099,None,375.6024773000099,None,375.1021422000049,None,f,0.8586540000105742,375.6024773000099,None,,,,,,,,,,,,,n,001,2021_Jul_07_1437,toilet,2021.1.3,99.89451140095132,
0,0,-4,4,0.97,,,,,0,0,0,0,0,53,53,2,,,,,,,,,,,,,,,,,,,,,,,377.47383130001253,None,377.47383130001253,None,376.9734066000092,None,f,0.4434264999872539,377.47383130001253,None,,,,,,,,,,,,,n,001,2021_Jul_07_1437,toilet,2021.1.3,99.89451140095132,
180,180,-4,4,1.03,,,,,0,0,0,0,0,54,54,32,,,,,,,,,,,,,,,,,,,,,,,378.9347705000109,None,378.9347705000109,None,378.4343969000038,None,j,0.43835010001203045,378.9347705000109,None,,,,,,,,,,,,,n,001,2021_Jul_07_1437,toilet,2021.1.3,99.89451140095132,
0,0,-4,4,1.0,,,,,0,0,0,0,0,55,55,3,,,,,,,,,,,,,,,,,,,,,,,380.37572040001396,None,380.37572040001396,None,379.8753727000003,None,j,0.5334738999954425,380.37572040001396,None,,,,,,,,,,,,,n,001,2021_Jul_07_1437,toilet,2021.1.3,99.89451140095132,
0,0,4,-4,0.94,,,,,0,0,0,0,1,0,56,8,,,,,,,,,,,,,,,,,,,,,,,381.91676279999956,None,381.91676279999956,None,381.4164204000117,None,j,0.41629989999637473,381.91676279999956,None,,,,,,,,,,,,,n,001,2021_Jul_07_1437,toilet,2021.1.3,99.89451140095132,
0,180,4,-4,0.94,,,,,0,0,0,0,1,1,57,22,,,,,,,,,,,,,,,,,,,,,,,383.33772840000165,None,383.33772840000165,None,382.837417200004,None,j,0.49940139999671374,383.33772840000165,None,,,,,,,,,,,,,n,001,2021_Jul_07_1437,toilet,2021.1.3,99.89451140095132,
180,0,-4,4,1.06,,,,,0,0,0,0,1,2,58,47,,,,,,,,,,,,,,,,,,,,,,,384.848825100009,None,384.848825100009,None,384.34841560000496,None,j,0.3004490000021178,384.848825100009,None,,,,,,,,,,,,,n,001,2021_Jul_07_1437,toilet,2021.1.3,99.89451140095132,
0,180,4,-4,0.97,,,,,0,0,0,0,1,3,59,23,,,,,,,,,,,,,,,,,,,,,,,386.1496696000104,None,386.1496696000104,None,385.6493363000045,None,j,0.5673976999969454,386.1496696000104,None,,,,,,,,,,,,,n,001,2021_Jul_07_1437,toilet,2021.1.3,99.89451140095132,
0,180,4,-4,0.85,,,,,0,0,0,0,1,4,60,21,,,,,,,,,,,,,,,,,,,,,,,387.72070430000895,None,387.72070430000895,None,387.2203736000083,None,j,0.35645420000946615,387.72070430000895,None,,,,,,,,,,,,,n,001,2021_Jul_07_1437,toilet,2021.1.3,99.89451140095132,
180,0,4,-4,1.15,,,,,0,0,0,0,1,5,61,55,,,,,,,,,,,,,,,,,,,,,,,389.0816254000092,None,389.0816254000092,None,388.5812842000014,None,f,0.41949540001223795,389.0816254000092,None,,,,,,,,,,,,,n,001,2021_Jul_07_1437,toilet,2021.1.3,99.89451140095132,
180,0,-4,4,0.85,,,,,0,0,0,0,1,6,62,42,,,,,,,,,,,,,,,,,,,,,,,390.5125987000065,None,390.5125987000065,None,390.01226750000205,None,f,0.348534099990502,390.5125987000065,None,,,,,,,,,,,,,n,001,2021_Jul_07_1437,toilet,2021.1.3,99.89451140095132,
180,0,-4,4,1.03,,,,,0,0,0,0,1,7,63,46,,,,,,,,,,,,,,,,,,,,,,,391.8736198000115,None,391.8736198000115,None,391.3731855000078,None,j,0.3635650999931386,391.8736198000115,None,,,,,,,,,,,,,n,001,2021_Jul_07_1437,toilet,2021.1.3,99.89451140095132,
0,180,-4,4,0.97,,,,,0,0,0,0,1,8,64,16,,,,,,,,,,,,,,,,,,,,,,,393.254548300014,None,393.254548300014,None,392.7542063000001,None,f,0.5345063000131631,393.254548300014,None,,,,,,,,,,,,,n,001,2021_Jul_07_1437,toilet,2021.1.3,99.89451140095132,
180,180,4,-4,1.03,,,,,0,0,0,0,1,9,65,39,,,,,,,,,,,,,,,,,,,,,,,394.79550120000204,None,394.79550120000204,None,394.2951666000008,None,j,0.5455675999983214,394.79550120000204,None,,,,,,,,,,,,,n,001,2021_Jul_07_1437,toilet,2021.1.3,99.89451140095132,
0,180,-4,4,0.94,,,,,0,0,0,0,1,10,66,15,,,,,,,,,,,,,,,,,,,,,,,396.34656060001,None,396.34656060001,None,395.84621850000985,None,f,0.5146597999992082,396.34656060001,None,,,,,,,,,,,,,n,001,2021_Jul_07_1437,toilet,2021.1.3,99.89451140095132,
180,0,4,-4,1.0,,,,,0,0,0,0,1,11,67,52,,,,,,,,,,,,,,,,,,,,,,,397.87759840000945,None,397.87759840000945,None,397.3772551000002,None,f,0.4877293000026839,397.87759840000945,None,,,,,,,,,,,,,n,001,2021_Jul_07_1437,toilet,2021.1.3,99.89451140095132,
180,180,-4,4,1.0,,,,,0,0,0,0,1,12,68,31,,,,,,,,,,,,,,,,,,,,,,,399.3786128000065,None,399.3786128000065,None,398.8783587000071,None,j,0.6504527999932179,399.3786128000065,None,,,,,,,,,,,,,n,001,2021_Jul_07_1437,toilet,2021.1.3,99.89451140095132,
180,0,4,-4,0.94,,,,,0,0,0,0,1,13,69,50,,,,,,,,,,,,,,,,,,,,,,,401.0297527000075,None,401.0297527000075,None,400.5294733000046,None,j,0.3753671000013128,401.0297527000075,None,,,,,,,,,,,,,n,001,2021_Jul_07_1437,toilet,2021.1.3,99.89451140095132,
0,0,4,-4,0.85,,,,,0,0,0,0,1,14,70,7,,,,,,,,,,,,,,,,,,,,,,,402.4106652000046,None,402.4106652000046,None,401.91033040000184,None,j,0.4023784000019077,402.4106652000046,None,,,,,,,,,,,,,n,001,2021_Jul_07_1437,toilet,2021.1.3,99.89451140095132,
180,180,-4,4,1.03,,,,,0,0,0,0,1,15,71,32,,,,,,,,,,,,,,,,,,,,,,,403.8216226000077,None,403.8216226000077,None,403.3212854000012,None,j,0.3994715000008,403.8216226000077,None,,,,,,,,,,,,,n,001,2021_Jul_07_1437,toilet,2021.1.3,99.89451140095132,
0,0,4,-4,1.06,,,,,0,0,0,0,1,16,72,12,,,,,,,,,,,,,,,,,,,,,,,405.2225778000138,None,405.2225778000138,None,404.72223790000135,None,f,0.39051470000413246,405.2225778000138,None,,,,,,,,,,,,,n,001,2021_Jul_07_1437,toilet,2021.1.3,99.89451140095132,
0,180,-4,4,1.0,,,,,0,0,0,0,1,17,73,17,,,,,,,,,,,,,,,,,,,,,,,406.61361050000414,None,406.61361050000414,None,406.1131783000019,None,f,0.59956260000763,406.61361050000414,None,,,,,,,,,,,,,n,001,2021_Jul_07_1437,toilet,2021.1.3,99.89451140095132,
0,180,4,-4,1.0,,,,,0,0,0,0,1,18,74,24,,,,,,,,,,,,,,,,,,,,,,,408.224623800008,None,408.224623800008,None,407.72436670000025,None,j,1.3885563000076218,408.224623800008,None,,,,,,,,,,,,,n,001,2021_Jul_07_1437,toilet,2021.1.3,99.89451140095132,
0,0,4,-4,1.15,,,,,0,0,0,0,1,19,75,13,,,,,,,,,,,,,,,,,,,,,,,410.61624070000835,None,410.61624070000835,None,410.1159040000057,None,f,0.4208606000029249,410.61624070000835,None,,,,,,,,,,,,,n,001,2021_Jul_07_1437,toilet,2021.1.3,99.89451140095132,
180,180,4,-4,1.06,,,,,0,0,0,0,1,20,76,40,,,,,,,,,,,,,,,,,,,,,,,412.04721420000715,None,412.04721420000715,None,411.54687120000017,None,f,0.42990829999325797,412.04721420000715,None,,,,,,,,,,,,,n,001,2021_Jul_07_1437,toilet,2021.1.3,99.89451140095132,
180,0,4,-4,0.85,,,,,0,0,0,0,1,21,77,49,,,,,,,,,,,,,,,,,,,,,,,413.48819440000807,None,413.48819440000807,None,412.98785950000456,None,j,0.4129959999991115,413.48819440000807,None,,,,,,,,,,,,,n,001,2021_Jul_07_1437,toilet,2021.1.3,99.89451140095132,
180,0,-4,4,1.15,,,,,0,0,0,0,1,22,78,48,,,,,,,,,,,,,,,,,,,,,,,414.90917090000585,None,414.90917090000585,None,414.4089023000124,None,j,0.4320086000079755,414.90917090000585,None,,,,,,,,,,,,,n,001,2021_Jul_07_1437,toilet,2021.1.3,99.89451140095132,
180,180,4,-4,0.85,,,,,0,0,0,0,1,23,79,35,,,,,,,,,,,,,,,,,,,,,,,416.35013640001125,None,416.35013640001125,None,415.8497927999997,None,j,0.5109029000013834,416.35013640001125,None,,,,,,,,,,,,,n,001,2021_Jul_07_1437,toilet,2021.1.3,99.89451140095132,
0,0,-4,4,0.97,,,,,0,0,0,0,1,24,80,2,,,,,,,,,,,,,,,,,,,,,,,417.8611595000111,None,417.8611595000111,None,417.3608193000109,None,f,0.5359037000016542,417.8611595000111,None,,,,,,,,,,,,,n,001,2021_Jul_07_1437,toilet,2021.1.3,99.89451140095132,
0,0,-4,4,1.0,,,,,0,0,0,0,1,25,81,3,,,,,,,,,,,,,,,,,,,,,,,419.4022050000058,None,419.4022050000058,None,418.901864200001,None,f,0.6589307999965968,419.4022050000058,None,,,,,,,,,,,,,n,001,2021_Jul_07_1437,toilet,2021.1.3,99.89451140095132,
180,180,-4,4,0.94,,,,,0,0,0,0,1,26,82,29,,,,,,,,,,,,,,,,,,,,,,,421.07333860000654,None,421.07333860000654,None,420.573014900001,None,f,0.3638916999916546,421.07333860000654,None,,,,,,,,,,,,,n,001,2021_Jul_07_1437,toilet,2021.1.3,99.89451140095132,
180,0,-4,4,0.94,,,,,0,0,0,0,1,27,83,43,,,,,,,,,,,,,,,,,,,,,,,422.45427570000174,None,422.45427570000174,None,421.9540226000099,None,f,0.5030171999969753,422.45427570000174,None,,,,,,,,,,,,,n,001,2021_Jul_07_1437,toilet,2021.1.3,99.89451140095132,
180,0,4,-4,1.06,,,,,0,0,0,0,1,28,84,54,,,,,,,,,,,,,,,,,,,,,,,423.97530870001356,None,423.97530870001356,None,423.4749961000052,None,f,0.3738352000073064,423.97530870001356,None,,,,,,,,,,,,,n,001,2021_Jul_07_1437,toilet,2021.1.3,99.89451140095132,
0,0,-4,4,0.85,,,,,0,0,0,0,1,29,85,0,,,,,,,,,,,,,,,,,,,,,,,425.356243000002,None,425.356243000002,None,424.8559060000116,None,f,0.32081409999227617,425.356243000002,None,,,,,,,,,,,,,n,001,2021_Jul_07_1437,toilet,2021.1.3,99.89451140095132,
180,180,4,-4,1.15,,,,,0,0,0,0,1,30,86,41,,,,,,,,,,,,,,,,,,,,,,,426.6771451000095,None,426.6771451000095,None,426.17680550001387,None,f,0.3281535999994958,426.6771451000095,None,,,,,,,,,,,,,n,001,2021_Jul_07_1437,toilet,2021.1.3,99.89451140095132,
0,0,-4,4,0.94,,,,,0,0,0,0,1,31,87,1,,,,,,,,,,,,,,,,,,,,,,,428.0180853000056,None,428.0180853000056,None,427.51770770001167,None,f,0.4110632999945665,428.0180853000056,None,,,,,,,,,,,,,n,001,2021_Jul_07_1437,toilet,2021.1.3,99.89451140095132,
180,180,4,-4,1.0,,,,,0,0,0,0,1,32,88,38,,,,,,,,,,,,,,,,,,,,,,,429.4291014000046,None,429.4291014000046,None,428.9287605999998,None,f,0.3440775000053691,429.4291014000046,None,,,,,,,,,,,,,n,001,2021_Jul_07_1437,toilet,2021.1.3,99.89451140095132,
0,180,-4,4,1.15,,,,,0,0,0,0,1,33,89,20,,,,,,,,,,,,,,,,,,,,,,,430.7899324000027,None,430.7899324000027,None,430.28959310000937,None,j,0.3591145999962464,430.7899324000027,None,,,,,,,,,,,,,n,001,2021_Jul_07_1437,toilet,2021.1.3,99.89451140095132,
180,0,4,-4,0.97,,,,,0,0,0,0,1,34,90,51,,,,,,,,,,,,,,,,,,,,,,,432.1508532000007,None,432.1508532000007,None,431.65052190001006,None,j,0.39017539999622386,432.1508532000007,None,,,,,,,,,,,,,n,001,2021_Jul_07_1437,toilet,2021.1.3,99.89451140095132,
180,180,4,-4,0.97,,,,,0,0,0,0,1,35,91,37,,,,,,,,,,,,,,,,,,,,,,,433.5418023000093,None,433.5418023000093,None,433.0414604000107,None,j,0.3754314000107115,433.5418023000093,None,,,,,,,,,,,,,n,001,2021_Jul_07_1437,toilet,2021.1.3,99.89451140095132,
180,0,4,-4,1.03,,,,,0,0,0,0,1,36,92,53,,,,,,,,,,,,,,,,,,,,,,,434.93274820000806,None,434.93274820000806,None,434.43240630000946,None,j,0.2965791999886278,434.93274820000806,None,,,,,,,,,,,,,n,001,2021_Jul_07_1437,toilet,2021.1.3,99.89451140095132,
0,180,4,-4,1.15,,,,,0,0,0,0,1,37,93,27,,,,,,,,,,,,,,,,,,,,,,,436.2537200000079,None,436.2537200000079,None,435.7533040000126,None,j,0.3034742999880109,436.2537200000079,None,,,,,,,,,,,,,n,001,2021_Jul_07_1437,toilet,2021.1.3,99.89451140095132,
0,180,-4,4,1.06,,,,,0,0,0,0,1,38,94,19,,,,,,,,,,,,,,,,,,,,,,,437.5745728000038,None,437.5745728000038,None,437.0742753000086,None,j,0.42245399999956135,437.5745728000038,None,,,,,,,,,,,,,n,001,2021_Jul_07_1437,toilet,2021.1.3,99.89451140095132,
180,180,4,-4,0.94,,,,,0,0,0,0,1,39,95,36,,,,,,,,,,,,,,,,,,,,,,,439.0055076999997,None,439.0055076999997,None,438.50517120001314,None,j,0.4155167999997502,439.0055076999997,None,,,,,,,,,,,,,n,001,2021_Jul_07_1437,toilet,2021.1.3,99.89451140095132,
0,180,4,-4,1.06,,,,,0,0,0,0,1,40,96,26,,,,,,,,,,,,,,,,,,,,,,,440.4264777000062,None,440.4264777000062,None,439.9261334000039,None,f,0.4987254000006942,440.4264777000062,None,,,,,,,,,,,,,n,001,2021_Jul_07_1437,toilet,2021.1.3,99.89451140095132,
0,0,4,-4,1.0,,,,,0,0,0,0,1,41,97,10,,,,,,,,,,,,,,,,,,,,,,,441.9374996000115,None,441.9374996000115,None,441.43716210000275,None,f,0.6358835999999428,441.9374996000115,None,,,,,,,,,,,,,n,001,2021_Jul_07_1437,toilet,2021.1.3,99.89451140095132,
0,0,4,-4,0.97,,,,,0,0,0,0,1,42,98,9,,,,,,,,,,,,,,,,,,,,,,,443.58870040001057,None,443.58870040001057,None,443.0882782000117,None,j,0.408387200004654,443.58870040001057,None,,,,,,,,,,,,,n,001,2021_Jul_07_1437,toilet,2021.1.3,99.89451140095132,
0,0,-4,4,1.03,,,,,0,0,0,0,1,43,99,4,,,,,,,,,,,,,,,,,,,,,,,445.00962060000165,None,445.00962060000165,None,444.509266500012,None,j,0.47540890000527725,445.00962060000165,None,,,,,,,,,,,,,n,001,2021_Jul_07_1437,toilet,2021.1.3,99.89451140095132,
180,180,-4,4,0.97,,,,,0,0,0,0,1,44,100,30,,,,,,,,,,,,,,,,,,,,,,,446.49059250000573,None,446.49059250000573,None,445.99024840000493,None,f,0.43445249999058433,446.49059250000573,None,,,,,,,,,,,,,n,001,2021_Jul_07_1437,toilet,2021.1.3,99.89451140095132,
0,180,-4,4,1.03,,,,,0,0,0,0,1,45,101,18,,,,,,,,,,,,,,,,,,,,,,,447.9316031000053,None,447.9316031000053,None,447.4312276000128,None,j,0.465614499989897,447.9316031000053,None,,,,,,,,,,,,,n,001,2021_Jul_07_1437,toilet,2021.1.3,99.89451140095132,
180,0,-4,4,1.0,,,,,0,0,0,0,1,46,102,45,,,,,,,,,,,,,,,,,,,,,,,449.4125722000026,None,449.4125722000026,None,448.91223630000604,None,f,0.8567027999961283,449.4125722000026,None,,,,,,,,,,,,,n,001,2021_Jul_07_1437,toilet,2021.1.3,99.89451140095132,
180,180,-4,4,1.06,,,,,0,0,0,0,1,47,103,33,,,,,,,,,,,,,,,,,,,,,,,451.2838397000014,None,451.2838397000014,None,450.78358700001263,None,j,0.37714349999441765,451.2838397000014,None,,,,,,,,,,,,,n,001,2021_Jul_07_1437,toilet,2021.1.3,99.89451140095132,
180,180,-4,4,1.15,,,,,0,0,0,0,1,48,104,34,,,,,,,,,,,,,,,,,,,,,,,452.6647871000023,None,452.6647871000023,None,452.16452870001376,None,j,0.4523410999972839,452.6647871000023,None,,,,,,,,,,,,,n,001,2021_Jul_07_1437,toilet,2021.1.3,99.89451140095132,
0,0,-4,4,1.15,,,,,0,0,0,0,1,49,105,6,,,,,,,,,,,,,,,,,,,,,,,454.1257820000028,None,454.1257820000028,None,453.62543270000606,None,j,0.5432407000043895,454.1257820000028,None,,,,,,,,,,,,,n,001,2021_Jul_07_1437,toilet,2021.1.3,99.89451140095132,
0,0,-4,4,1.06,,,,,0,0,0,0,1,50,106,5,,,,,,,,,,,,,,,,,,,,,,,455.67682000000787,None,455.67682000000787,None,455.1864935000049,None,j,0.6083316000003833,455.67682000000787,None,,,,,,,,,,,,,n,001,2021_Jul_07_1437,toilet,2021.1.3,99.89451140095132,
180,180,-4,4,0.85,,,,,0,0,0,0,1,51,107,28,,,,,,,,,,,,,,,,,,,,,,,457.2979183000134,None,457.2979183000134,None,456.79757890000474,None,f,0.44326770000043325,457.2979183000134,None,,,,,,,,,,,,,n,001,2021_Jul_07_1437,toilet,2021.1.3,99.89451140095132,
0,180,4,-4,1.03,,,,,0,0,0,0,1,52,108,25,,,,,,,,,,,,,,,,,,,,,,,458.75898700000835,None,458.75898700000835,None,458.258567900004,None,f,0.7261901000019861,458.75898700000835,None,,,,,,,,,,,,,n,001,2021_Jul_07_1437,toilet,2021.1.3,99.89451140095132,
0,180,-4,4,0.85,,,,,0,0,0,0,1,53,109,14,,,,,,,,,,,,,,,,,,,,,,,460.5000885000045,None,460.5000885000045,None,459.99975250000716,None,f,0.45692549999512266,460.5000885000045,None,,,,,,,,,,,,,n,001,2021_Jul_07_1437,toilet,2021.1.3,99.89451140095132,
180,0,-4,4,0.97,,,,,0,0,0,0,1,54,110,44,,,,,,,,,,,,,,,,,,,,,,,461.9610853000049,None,461.9610853000049,None,461.46074240001326,None,f,0.9640320999897085,461.9610853000049,None,,,,,,,,,,,,,n,001,2021_Jul_07_1437,toilet,2021.1.3,99.89451140095132,
0,0,4,-4,1.03,,,,,0,0,0,0,1,55,111,11,,,,,,,,,,,,,,,,,,,,,,,463.9424341000122,None,463.9424341000122,None,463.4420911000052,None,f,0.4547228000010364,463.9424341000122,None,,,,,,,,,,,,,n,001,2021_Jul_07_1437,toilet,2021.1.3,99.89451140095132,
,,,,,,,,,0,0,0,0,,,,,,,,,,,,,,,,,,,,,,,,,,,,,,,,,,,,,464.422808000003,None,space,1.2702873000089312,464.422808000003,None,,,,,,,n,001,2021_Jul_07_1437,toilet,2021.1.3,99.89451140095132,
180,180,-4,4,0.94,,,,,1,0,1,0,0,0,0,29,,,,,,,,,,,,,,,,,465.70363070000894,None,space,1.5094753000012133,465.70363070000894,None,468.2253450999997,None,468.2253450999997,None,467.7249953000137,None,f,0.6037568000028841,468.2253450999997,None,,,,,,,,,,,,,n,001,2021_Jul_07_1437,toilet,2021.1.3,99.89451140095132,
0,0,4,-4,1.06,,,,,1,0,1,0,0,1,1,12,,,,,,,,,,,,,,,,,,,,,,,469.83643239999947,None,469.83643239999947,None,469.33609350000916,None,f,0.49680029999581166,469.83643239999947,None,,,,,,,,,,,,,n,001,2021_Jul_07_1437,toilet,2021.1.3,99.89451140095132,
180,180,-4,4,1.0,,,,,1,0,1,0,0,2,2,31,,,,,,,,,,,,,,,,,,,,,,,471.34749480000755,None,471.34749480000755,None,470.84712489999947,None,f,0.729599899990717,471.34749480000755,None,,,,,,,,,,,,,n,001,2021_Jul_07_1437,toilet,2021.1.3,99.89451140095132,
0,180,4,-4,0.85,,,,,1,0,1,0,0,3,3,21,,,,,,,,,,,,,,,,,,,,,,,473.0887158000114,None,473.0887158000114,None,472.58830010000383,None,j,0.4284205000003567,473.0887158000114,None,,,,,,,,,,,,,n,001,2021_Jul_07_1437,toilet,2021.1.3,99.89451140095132,
180,180,-4,4,1.15,,,,,1,0,1,0,0,4,4,34,,,,,,,,,,,,,,,,,,,,,,,474.52969910000684,None,474.52969910000684,None,474.0292959000071,None,j,0.5233496000000741,474.52969910000684,None,,,,,,,,,,,,,n,001,2021_Jul_07_1437,toilet,2021.1.3,99.89451140095132,
0,180,-4,4,0.85,,,,,1,0,1,0,0,5,5,14,,,,,,,,,,,,,,,,,,,,,,,476.0606591000105,None,476.0606591000105,None,475.5603323000105,None,f,0.3683309000043664,476.0606591000105,None,,,,,,,,,,,,,n,001,2021_Jul_07_1437,toilet,2021.1.3,99.89451140095132,
0,0,4,-4,0.94,,,,,1,0,1,0,0,6,6,8,,,,,,,,,,,,,,,,,,,,,,,477.4315905000112,None,477.4315905000112,None,476.9312457000051,None,j,0.421551500010537,477.4315905000112,None,,,,,,,,,,,,,n,001,2021_Jul_07_1437,toilet,2021.1.3,99.89451140095132,
0,180,-4,4,1.0,,,,,1,0,1,0,0,7,7,17,,,,,,,,,,,,,,,,,,,,,,,478.8625591000018,None,478.8625591000018,None,478.36221790000855,None,f,0.39853219999349676,478.8625591000018,None,,,,,,,,,,,,,n,001,2021_Jul_07_1437,toilet,2021.1.3,99.89451140095132,
180,0,-4,4,1.03,,,,,1,0,1,0,0,8,8,46,,,,,,,,,,,,,,,,,,,,,,,480.2735895000078,None,480.2735895000078,None,479.7731785000069,None,j,0.6194090999924811,480.2735895000078,None,,,,,,,,,,,,,n,001,2021_Jul_07_1437,toilet,2021.1.3,99.89451140095132,
0,180,-4,4,0.97,,,,,1,0,1,0,0,9,9,16,,,,,,,,,,,,,,,,,,,,,,,481.8946086000069,None,481.8946086000069,None,481.39435770000273,None,f,0.45441970000683796,481.8946086000069,None,,,,,,,,,,,,,n,001,2021_Jul_07_1437,toilet,2021.1.3,99.89451140095132,
0,180,4,-4,1.15,,,,,1,0,1,0,0,10,10,27,,,,,,,,,,,,,,,,,,,,,,,483.3556096000102,None,483.3556096000102,None,482.8552706000046,None,f,0.38541000000259373,483.3556096000102,None,,,,,,,,,,,,,n,001,2021_Jul_07_1437,toilet,2021.1.3,99.89451140095132,
0,0,4,-4,0.85,,,,,1,0,1,0,0,11,11,7,,,,,,,,,,,,,,,,,,,,,,,484.74655950001033,None,484.74655950001033,None,484.24622310000996,None,j,0.40251790000183973,484.74655950001033,None,,,,,,,,,,,,,n,001,2021_Jul_07_1437,toilet,2021.1.3,99.89451140095132,
0,180,-4,4,1.15,,,,,1,0,1,0,0,12,12,20,,,,,,,,,,,,,,,,,,,,,,,486.17752350000956,None,486.17752350000956,None,485.67718250000325,None,j,0.39559979998739436,486.17752350000956,None,,,,,,,,,,,,,n,001,2021_Jul_07_1437,toilet,2021.1.3,99.89451140095132,
180,0,-4,4,1.0,,,,,1,0,1,0,0,13,13,45,,,,,,,,,,,,,,,,,,,,,,,487.5785551000008,None,487.5785551000008,None,487.0781275000045,None,f,0.49845769999956246,487.5785551000008,None,,,,,,,,,,,,,n,001,2021_Jul_07_1437,toilet,2021.1.3,99.89451140095132,
180,180,4,-4,0.85,,,,,1,0,1,0,0,14,14,35,,,,,,,,,,,,,,,,,,,,,,,489.0795097000082,None,489.0795097000082,None,488.579215500009,None,j,0.389546500009601,489.0795097000082,None,,,,,,,,,,,,,n,001,2021_Jul_07_1437,toilet,2021.1.3,99.89451140095132,
0,0,4,-4,1.15,,,,,1,0,1,0,0,15,15,13,,,,,,,,,,,,,,,,,,,,,,,490.4704345000064,None,490.4704345000064,None,489.97009270000854,None,f,0.40670870000030845,490.4704345000064,None,,,,,,,,,,,,,n,001,2021_Jul_07_1437,toilet,2021.1.3,99.89451140095132,
0,0,-4,4,0.85,,,,,1,0,1,0,0,16,16,0,,,,,,,,,,,,,,,,,,,,,,,491.8813913000049,None,491.8813913000049,None,491.3810482000117,None,f,0.3878601000033086,491.8813913000049,None,,,,,,,,,,,,,n,001,2021_Jul_07_1437,toilet,2021.1.3,99.89451140095132,
180,0,4,-4,1.06,,,,,1,0,1,0,0,17,17,54,,,,,,,,,,,,,,,,,,,,,,,493.282340500009,None,493.282340500009,None,492.781996500009,None,j,0.3306697000080021,493.282340500009,None,,,,,,,,,,,,,n,001,2021_Jul_07_1437,toilet,2021.1.3,99.89451140095132,
180,180,-4,4,1.06,,,,,1,0,1,0,0,18,18,33,,,,,,,,,,,,,,,,,,,,,,,494.61332350000157,None,494.61332350000157,None,494.112913200006,None,j,0.4877433999936329,494.61332350000157,None,,,,,,,,,,,,,n,001,2021_Jul_07_1437,toilet,2021.1.3,99.89451140095132,
0,180,4,-4,1.0,,,,,1,0,1,0,0,19,19,24,,,,,,,,,,,,,,,,,,,,,,,496.10433580000245,None,496.10433580000245,None,495.6040049000003,None,f,0.772804799998994,496.10433580000245,None,,,,,,,,,,,,,n,001,2021_Jul_07_1437,toilet,2021.1.3,99.89451140095132,
180,180,4,-4,0.97,,,,,1,0,1,0,0,20,20,37,,,,,,,,,,,,,,,,,,,,,,,497.8854616000026,None,497.8854616000026,None,497.3851275000052,None,f,0.7836266999947838,497.8854616000026,None,,,,,,,,,,,,,n,001,2021_Jul_07_1437,toilet,2021.1.3,99.89451140095132,
0,180,4,-4,0.94,,,,,1,0,1,0,0,21,21,22,,,,,,,,,,,,,,,,,,,,,,,499.6766934000043,None,499.6766934000043,None,499.17634460001136,None,j,0.4323773999931291,499.6766934000043,None,,,,,,,,,,,,,n,001,2021_Jul_07_1437,toilet,2021.1.3,99.89451140095132,
180,0,-4,4,1.06,,,,,1,0,1,0,0,22,22,47,,,,,,,,,,,,,,,,,,,,,,,501.1276685000048,None,501.1276685000048,None,500.62733110001136,None,j,0.6294178999960423,501.1276685000048,None,,,,,,,,,,,,,n,001,2021_Jul_07_1437,toilet,2021.1.3,99.89451140095132,
180,180,4,-4,1.03,,,,,1,0,1,0,0,23,23,39,,,,,,,,,,,,,,,,,,,,,,,502.7687842000014,None,502.7687842000014,None,502.2685369000101,None,f,0.47638850001385435,502.7687842000014,None,,,,,,,,,,,,,n,001,2021_Jul_07_1437,toilet,2021.1.3,99.89451140095132,
0,180,4,-4,1.03,,,,,1,0,1,0,0,24,24,25,,,,,,,,,,,,,,,,,,,,,,,504.2597975000099,None,504.2597975000099,None,503.7595410000067,None,f,0.47332689999893773,504.2597975000099,None,,,,,,,,,,,,,n,001,2021_Jul_07_1437,toilet,2021.1.3,99.89451140095132,
180,180,4,-4,1.15,,,,,1,0,1,0,0,25,25,41,,,,,,,,,,,,,,,,,,,,,,,505.7407940000121,None,505.7407940000121,None,505.24045460000343,None,f,0.4162761000043247,505.7407940000121,None,,,,,,,,,,,,,n,001,2021_Jul_07_1437,toilet,2021.1.3,99.89451140095132,
0,0,-4,4,1.06,,,,,1,0,1,0,0,26,26,5,,,,,,,,,,,,,,,,,,,,,,,507.1617597000004,None,507.1617597000004,None,506.6614261000068,None,j,0.41930860000138637,507.1617597000004,None,,,,,,,,,,,,,n,001,2021_Jul_07_1437,toilet,2021.1.3,99.89451140095132,
0,180,-4,4,1.06,,,,,1,0,1,0,0,27,27,19,,,,,,,,,,,,,,,,,,,,,,,508.58272670001315,None,508.58272670001315,None,508.0823848,None,j,0.5664091000071494,508.58272670001315,None,,,,,,,,,,,,,n,001,2021_Jul_07_1437,toilet,2021.1.3,99.89451140095132,
180,0,4,-4,0.94,,,,,1,0,1,0,0,28,28,50,,,,,,,,,,,,,,,,,,,,,,,510.1538276000065,None,510.1538276000065,None,509.65353380001034,None,j,0.43518610000319313,510.1538276000065,None,,,,,,,,,,,,,n,001,2021_Jul_07_1437,toilet,2021.1.3,99.89451140095132,
180,180,4,-4,0.94,,,,,1,0,1,0,0,29,29,36,,,,,,,,,,,,,,,,,,,,,,,511.59476859999995,None,511.59476859999995,None,511.0945003000088,None,j,0.4822633000003407,511.59476859999995,None,,,,,,,,,,,,,n,001,2021_Jul_07_1437,toilet,2021.1.3,99.89451140095132,
180,180,-4,4,0.97,,,,,1,0,1,0,0,30,30,30,,,,,,,,,,,,,,,,,,,,,,,513.0857783000101,None,513.0857783000101,None,512.5854697000032,None,f,0.5913443000026746,513.0857783000101,None,,,,,,,,,,,,,n,001,2021_Jul_07_1437,toilet,2021.1.3,99.89451140095132,
180,0,4,-4,1.15,,,,,1,0,1,0,0,31,31,55,,,,,,,,,,,,,,,,,,,,,,,514.6868647000083,None,514.6868647000083,None,514.1865259000042,None,f,0.4942982999928063,514.6868647000083,None,,,,,,,,,,,,,n,001,2021_Jul_07_1437,toilet,2021.1.3,99.89451140095132,
0,180,-4,4,1.03,,,,,1,0,1,0,0,32,32,18,,,,,,,,,,,,,,,,,,,,,,,516.2079104000004,None,516.2079104000004,None,515.7075645000004,None,j,0.46118420000129845,516.2079104000004,None,,,,,,,,,,,,,n,001,2021_Jul_07_1437,toilet,2021.1.3,99.89451140095132,
0,0,4,-4,1.03,,,,,1,0,1,0,0,33,33,11,,,,,,,,,,,,,,,,,,,,,,,517.6790002000052,None,517.6790002000052,None,517.1786378000106,None,f,0.8780661000055261,517.6790002000052,None,,,,,,,,,,,,,n,001,2021_Jul_07_1437,toilet,2021.1.3,99.89451140095132,
180,0,-4,4,0.85,,,,,1,0,1,0,0,34,34,42,,,,,,,,,,,,,,,,,,,,,,,519.5701851000049,None,519.5701851000049,None,519.0698444000009,None,f,0.3948231999966083,519.5701851000049,None,,,,,,,,,,,,,n,001,2021_Jul_07_1437,toilet,2021.1.3,99.89451140095132,
180,180,-4,4,1.03,,,,,1,0,1,0,0,35,35,32,,,,,,,,,,,,,,,,,,,,,,,520.9711375000043,None,520.9711375000043,None,520.4707982000109,None,j,0.4980102999979863,520.9711375000043,None,,,,,,,,,,,,,n,001,2021_Jul_07_1437,toilet,2021.1.3,99.89451140095132,
180,0,4,-4,1.03,,,,,1,0,1,0,0,36,36,53,,,,,,,,,,,,,,,,,,,,,,,522.4821642000024,None,522.4821642000024,None,521.981832400008,None,f,0.4589191999984905,522.4821642000024,None,,,,,,,,,,,,,n,001,2021_Jul_07_1437,toilet,2021.1.3,99.89451140095132,
180,180,4,-4,1.06,,,,,1,0,1,0,0,37,37,40,,,,,,,,,,,,,,,,,,,,,,,523.9531605000084,None,523.9531605000084,None,523.452818500009,None,f,0.5878787999972701,523.9531605000084,None,,,,,,,,,,,,,n,001,2021_Jul_07_1437,toilet,2021.1.3,99.89451140095132,
180,0,-4,4,0.94,,,,,1,0,1,0,0,38,38,43,,,,,,,,,,,,,,,,,,,,,,,525.5443248000083,None,525.5443248000083,None,525.0439976000052,None,f,0.7727607999986503,525.5443248000083,None,,,,,,,,,,,,,n,001,2021_Jul_07_1437,toilet,2021.1.3,99.89451140095132,
180,0,4,-4,1.0,,,,,1,0,1,0,0,39,39,52,,,,,,,,,,,,,,,,,,,,,,,527.3254492000124,None,527.3254492000124,None,526.8251042000047,None,f,0.8795420000096783,527.3254492000124,None,,,,,,,,,,,,,n,001,2021_Jul_07_1437,toilet,2021.1.3,99.89451140095132,
180,180,4,-4,1.0,,,,,1,0,1,0,0,40,40,38,,,,,,,,,,,,,,,,,,,,,,,529.2067273000139,None,529.2067273000139,None,528.7063879000052,None,f,0.7745454999967478,529.2067273000139,None,,,,,,,,,,,,,n,001,2021_Jul_07_1437,toilet,2021.1.3,99.89451140095132,
0,0,-4,4,0.97,,,,,1,0,1,0,0,41,41,2,,,,,,,,,,,,,,,,,,,,,,,530.9979421000025,None,530.9979421000025,None,530.4976038000023,None,f,0.6152116000012029,530.9979421000025,None,,,,,,,,,,,,,n,001,2021_Jul_07_1437,toilet,2021.1.3,99.89451140095132,
0,0,4,-4,1.0,,,,,1,0,1,0,0,42,42,10,,,,,,,,,,,,,,,,,,,,,,,532.62913880001,None,532.62913880001,None,532.1287791000068,None,f,1.3519348999980139,532.62913880001,None,,,,,,,,,,,,,n,001,2021_Jul_07_1437,toilet,2021.1.3,99.89451140095132,
180,0,-4,4,1.15,,,,,1,0,1,0,0,43,43,48,,,,,,,,,,,,,,,,,,,,,,,534.980641800008,None,534.980641800008,None,534.4803030000039,None,j,0.4563087999995332,534.980641800008,None,,,,,,,,,,,,,n,001,2021_Jul_07_1437,toilet,2021.1.3,99.89451140095132,
0,180,-4,4,0.94,,,,,1,0,1,0,0,44,44,15,,,,,,,,,,,,,,,,,,,,,,,536.4416412000137,None,536.4416412000137,None,535.9413002000074,None,f,0.49931650000507943,536.4416412000137,None,,,,,,,,,,,,,n,001,2021_Jul_07_1437,toilet,2021.1.3,99.89451140095132,
0,180,4,-4,0.97,,,,,1,0,1,0,0,45,45,23,,,,,,,,,,,,,,,,,,,,,,,537.9426517000102,None,537.9426517000102,None,537.4423123000015,None,j,0.45449699999880977,537.9426517000102,None,,,,,,,,,,,,,n,001,2021_Jul_07_1437,toilet,2021.1.3,99.89451140095132,
0,0,-4,4,1.03,,,,,1,0,1,0,0,46,46,4,,,,,,,,,,,,,,,,,,,,,,,539.4136488000076,None,539.4136488000076,None,538.9133838000125,None,f,1.9274200999934692,539.4136488000076,None,,,,,,,,,,,,,n,001,2021_Jul_07_1437,toilet,2021.1.3,99.89451140095132,
180,0,-4,4,0.97,,,,,1,0,1,0,0,47,47,44,,,,,,,,,,,,,,,,,,,,,,,542.3456385000027,None,542.3456385000027,None,541.8452970000071,None,f,0.4834240000054706,542.3456385000027,None,,,,,,,,,,,,,n,001,2021_Jul_07_1437,toilet,2021.1.3,99.89451140095132,
0,0,-4,4,0.94,,,,,1,0,1,0,0,48,48,1,,,,,,,,,,,,,,,,,,,,,,,543.8366494000074,None,543.8366494000074,None,543.3363111000072,None,f,0.5285930999962147,543.8366494000074,None,,,,,,,,,,,,,n,001,2021_Jul_07_1437,toilet,2021.1.3,99.89451140095132,
180,0,4,-4,0.97,,,,,1,0,1,0,0,49,49,51,,,,,,,,,,,,,,,,,,,,,,,545.3776956000074,None,545.3776956000074,None,544.8773605000024,None,j,0.4753381999908015,545.3776956000074,None,,,,,,,,,,,,,n,001,2021_Jul_07_1437,toilet,2021.1.3,99.89451140095132,
0,0,4,-4,0.97,,,,,1,0,1,0,0,50,50,9,,,,,,,,,,,,,,,,,,,,,,,546.8587078000128,None,546.8587078000128,None,546.3584520000004,None,f,0.5465159000013955,546.8587078000128,None,,,,,,,,,,,,,n,001,2021_Jul_07_1437,toilet,2021.1.3,99.89451140095132,
0,0,-4,4,1.0,,,,,1,0,1,0,0,51,51,3,,,,,,,,,,,,,,,,,,,,,,,548.4197614000004,None,548.4197614000004,None,547.9194678000058,None,f,0.7453644000052009,548.4197614000004,None,,,,,,,,,,,,,n,001,2021_Jul_07_1437,toilet,2021.1.3,99.89451140095132,
0,180,4,-4,1.06,,,,,1,0,1,0,0,52,52,26,,,,,,,,,,,,,,,,,,,,,,,550.1709495000105,None,550.1709495000105,None,549.6706085000042,None,f,0.45017720000760164,550.1709495000105,None,,,,,,,,,,,,,n,001,2021_Jul_07_1437,toilet,2021.1.3,99.89451140095132,
180,180,-4,4,0.85,,,,,1,0,1,0,0,53,53,28,,,,,,,,,,,,,,,,,,,,,,,551.6319538000098,None,551.6319538000098,None,551.1316111000051,None,f,0.4452163000096334,551.6319538000098,None,,,,,,,,,,,,,n,001,2021_Jul_07_1437,toilet,2021.1.3,99.89451140095132,
180,0,4,-4,0.85,,,,,1,0,1,0,0,54,54,49,,,,,,,,,,,,,,,,,,,,,,,553.0929296000104,None,553.0929296000104,None,552.5925975000137,None,j,0.4561897000094177,553.0929296000104,None,,,,,,,,,,,,,n,001,2021_Jul_07_1437,toilet,2021.1.3,99.89451140095132,
0,0,-4,4,1.15,,,,,1,0,1,0,0,55,55,6,,,,,,,,,,,,,,,,,,,,,,,554.5540131000016,None,554.5540131000016,None,554.0536810000049,None,j,0.451035200007027,554.5540131000016,None,,,,,,,,,,,,,n,001,2021_Jul_07_1437,toilet,2021.1.3,99.89451140095132,
180,180,-4,4,1.0,,,,,1,0,1,0,1,0,56,31,,,,,,,,,,,,,,,,,,,,,,,556.0149256000004,None,556.0149256000004,None,555.5146505000012,None,j,0.4141163000022061,556.0149256000004,None,,,,,,,,,,,,,n,001,2021_Jul_07_1437,toilet,2021.1.3,99.89451140095132,
0,0,4,-4,1.06,,,,,1,0,1,0,1,1,57,12,,,,,,,,,,,,,,,,,,,,,,,557.4358786000084,None,557.4358786000084,None,556.9355407000112,None,f,0.4171217999974033,557.4358786000084,None,,,,,,,,,,,,,n,001,2021_Jul_07_1437,toilet,2021.1.3,99.89451140095132,
0,180,-4,4,0.85,,,,,1,0,1,0,1,2,58,14,,,,,,,,,,,,,,,,,,,,,,,558.856846900002,None,558.856846900002,None,558.3565063000133,None,f,0.8843492000014521,558.856846900002,None,,,,,,,,,,,,,n,001,2021_Jul_07_1437,toilet,2021.1.3,99.89451140095132,
0,180,4,-4,0.85,,,,,1,0,1,0,1,3,59,21,,,,,,,,,,,,,,,,,,,,,,,560.7582184000057,None,560.7582184000057,None,560.2577910000109,None,j,0.3908359999913955,560.7582184000057,None,,,,,,,,,,,,,n,001,2021_Jul_07_1437,toilet,2021.1.3,99.89451140095132,
180,0,4,-4,0.94,,,,,1,0,1,0,1,4,60,50,,,,,,,,,,,,,,,,,,,,,,,562.1491673000128,None,562.1491673000128,None,561.6487704000028,None,j,0.4239352000004146,562.1491673000128,None,,,,,,,,,,,,,n,001,2021_Jul_07_1437,toilet,2021.1.3,99.89451140095132,
0,0,-4,4,1.06,,,,,1,0,1,0,1,5,61,5,,,,,,,,,,,,,,,,,,,,,,,563.5900565000047,None,563.5900565000047,None,563.0897148000076,None,j,0.6149433999962639,563.5900565000047,None,,,,,,,,,,,,,n,001,2021_Jul_07_1437,toilet,2021.1.3,99.89451140095132,
0,180,-4,4,0.94,,,,,1,0,1,0,1,6,62,15,,,,,,,,,,,,,,,,,,,,,,,565.2111598000047,None,565.2111598000047,None,564.7108181000076,None,f,0.4179987999959849,565.2111598000047,None,,,,,,,,,,,,,n,001,2021_Jul_07_1437,toilet,2021.1.3,99.89451140095132,
0,0,4,-4,0.97,,,,,1,0,1,0,1,7,63,9,,,,,,,,,,,,,,,,,,,,,,,566.6421224000078,None,566.6421224000078,None,566.141786600012,None,f,0.7308513000025414,566.6421224000078,None,,,,,,,,,,,,,n,001,2021_Jul_07_1437,toilet,2021.1.3,99.89451140095132,
180,180,4,-4,1.03,,,,,1,0,1,0,1,8,64,39,,,,,,,,,,,,,,,,,,,,,,,568.3734075000102,None,568.3734075000102,None,567.8729663000122,None,f,0.6158558000024641,568.3734075000102,None,,,,,,,,,,,,,n,001,2021_Jul_07_1437,toilet,2021.1.3,99.89451140095132,
0,0,4,-4,1.0,,,,,1,0,1,0,1,9,65,10,,,,,,,,,,,,,,,,,,,,,,,570.0044865000091,None,570.0044865000091,None,569.5040712000045,None,f,0.744504300004337,570.0044865000091,None,,,,,,,,,,,,,n,001,2021_Jul_07_1437,toilet,2021.1.3,99.89451140095132,
0,180,4,-4,1.03,,,,,1,0,1,0,1,10,66,25,,,,,,,,,,,,,,,,,,,,,,,571.7555966000073,None,571.7555966000073,None,571.2552603000076,None,f,0.4333818000013707,571.7555966000073,None,,,,,,,,,,,,,n,001,2021_Jul_07_1437,toilet,2021.1.3,99.89451140095132,
0,0,-4,4,1.03,,,,,1,0,1,0,1,11,67,4,,,,,,,,,,,,,,,,,,,,,,,573.1965777000005,None,573.1965777000005,None,572.6962344000058,None,f,0.49659470000187866,573.1965777000005,None,,,,,,,,,,,,,n,001,2021_Jul_07_1437,toilet,2021.1.3,99.89451140095132,
180,180,4,-4,0.94,,,,,1,0,1,0,1,12,68,36,,,,,,,,,,,,,,,,,,,,,,,574.7076027000003,None,574.7076027000003,None,574.2072627000016,None,j,0.4894161999982316,574.7076027000003,None,,,,,,,,,,,,,n,001,2021_Jul_07_1437,toilet,2021.1.3,99.89451140095132,
180,0,4,-4,1.03,,,,,1,0,1,0,1,13,69,53,,,,,,,,,,,,,,,,,,,,,,,576.2087126000115,None,576.2087126000115,None,575.7082846000121,None,j,0.4444668000069214,576.2087126000115,None,,,,,,,,,,,,,n,001,2021_Jul_07_1437,toilet,2021.1.3,99.89451140095132,
0,0,-4,4,1.15,,,,,1,0,1,0,1,14,70,6,,,,,,,,,,,,,,,,,,,,,,,577.6696467000002,None,577.6696467000002,None,577.1693431000022,None,j,0.3753104000061285,577.6696467000002,None,,,,,,,,,,,,,n,001,2021_Jul_07_1437,toilet,2021.1.3,99.89451140095132,
0,0,-4,4,0.94,,,,,1,0,1,0,1,15,71,1,,,,,,,,,,,,,,,,,,,,,,,579.05054750001,None,579.05054750001,None,578.5502135999996,None,f,0.4185435000108555,579.05054750001,None,,,,,,,,,,,,,n,001,2021_Jul_07_1437,toilet,2021.1.3,99.89451140095132,
0,180,4,-4,1.15,,,,,1,0,1,0,1,16,72,27,,,,,,,,,,,,,,,,,,,,,,,580.4715097000008,None,580.4715097000008,None,579.9711721000058,None,f,0.3895413999998709,580.4715097000008,None,,,,,,,,,,,,,n,001,2021_Jul_07_1437,toilet,2021.1.3,99.89451140095132,
180,0,4,-4,1.0,,,,,1,0,1,0,1,17,73,52,,,,,,,,,,,,,,,,,,,,,,,581.8624535000126,None,581.8624535000126,None,581.3621213000006,None,f,0.4708046000014292,581.8624535000126,None,,,,,,,,,,,,,n,001,2021_Jul_07_1437,toilet,2021.1.3,99.89451140095132,
0,0,4,-4,0.85,,,,,1,0,1,0,1,18,74,7,,,,,,,,,,,,,,,,,,,,,,,583.3434675000026,None,583.3434675000026,None,582.8432177000068,None,j,0.39767489999940153,583.3434675000026,None,,,,,,,,,,,,,n,001,2021_Jul_07_1437,toilet,2021.1.3,99.89451140095132,
180,180,4,-4,1.06,,,,,1,0,1,0,1,19,75,40,,,,,,,,,,,,,,,,,,,,,,,584.7544396000012,None,584.7544396000012,None,584.254164900005,None,f,0.45853839999472257,584.7544396000012,None,,,,,,,,,,,,,n,001,2021_Jul_07_1437,toilet,2021.1.3,99.89451140095132,
180,0,4,-4,1.15,,,,,1,0,1,0,1,20,76,55,,,,,,,,,,,,,,,,,,,,,,,586.2154436000128,None,586.2154436000128,None,585.715073600004,None,f,0.3416536000004271,586.2154436000128,None,,,,,,,,,,,,,n,001,2021_Jul_07_1437,toilet,2021.1.3,99.89451140095132,
180,0,4,-4,0.97,,,,,1,0,1,0,1,21,77,51,,,,,,,,,,,,,,,,,,,,,,,587.5663271000085,None,587.5663271000085,None,587.0659864000045,None,j,0.5109203999891179,587.5663271000085,None,,,,,,,,,,,,,n,001,2021_Jul_07_1437,toilet,2021.1.3,99.89451140095132,
180,180,4,-4,1.0,,,,,1,0,1,0,1,22,78,38,,,,,,,,,,,,,,,,,,,,,,,589.0873557000014,None,589.0873557000014,None,588.5870225000108,None,f,0.717620800001896,589.0873557000014,None,,,,,,,,,,,,,n,001,2021_Jul_07_1437,toilet,2021.1.3,99.89451140095132,
0,180,4,-4,1.06,,,,,1,0,1,0,1,23,79,26,,,,,,,,,,,,,,,,,,,,,,,590.8085978000017,None,590.8085978000017,None,590.3081833000033,None,f,0.3884351000015158,590.8085978000017,None,,,,,,,,,,,,,n,001,2021_Jul_07_1437,toilet,2021.1.3,99.89451140095132,
180,180,-4,4,1.06,,,,,1,0,1,0,1,24,80,33,,,,,,,,,,,,,,,,,,,,,,,592.2095109000074,None,592.2095109000074,None,591.709136800011,None,j,0.4594473999895854,592.2095109000074,None,,,,,,,,,,,,,n,001,2021_Jul_07_1437,toilet,2021.1.3,99.89451140095132,
180,0,-4,4,1.06,,,,,1,0,1,0,1,25,81,47,,,,,,,,,,,,,,,,,,,,,,,593.6704709000041,None,593.6704709000041,None,593.1701324000023,None,j,0.4225342999998247,593.6704709000041,None,,,,,,,,,,,,,n,001,2021_Jul_07_1437,toilet,2021.1.3,99.89451140095132,
0,0,-4,4,0.97,,,,,1,0,1,0,1,26,82,2,,,,,,,,,,,,,,,,,,,,,,,595.1014426000038,None,595.1014426000038,None,594.6011122000054,None,f,0.7036461999960011,595.1014426000038,None,,,,,,,,,,,,,n,001,2021_Jul_07_1437,toilet,2021.1.3,99.89451140095132,
0,0,4,-4,0.94,,,,,1,0,1,0,1,27,83,8,,,,,,,,,,,,,,,,,,,,,,,596.8126034000015,None,596.8126034000015,None,596.3122603000083,None,j,0.36846779999905266,596.8126034000015,None,,,,,,,,,,,,,n,001,2021_Jul_07_1437,toilet,2021.1.3,99.89451140095132,
180,0,-4,4,1.15,,,,,1,0,1,0,1,28,84,48,,,,,,,,,,,,,,,,,,,,,,,598.1936218000046,None,598.1936218000046,None,597.6931975000043,None,j,0.37945480000053067,598.1936218000046,None,,,,,,,,,,,,,n,001,2021_Jul_07_1437,toilet,2021.1.3,99.89451140095132,
0,180,-4,4,0.97,,,,,1,0,1,0,1,29,85,16,,,,,,,,,,,,,,,,,,,,,,,599.5845155000134,None,599.5845155000134,None,599.0842462,None,f,0.5244439000089187,599.5845155000134,None,,,,,,,,,,,,,n,001,2021_Jul_07_1437,toilet,2021.1.3,99.89451140095132,
180,0,-4,4,0.97,,,,,1,0,1,0,1,30,86,44,,,,,,,,,,,,,,,,,,,,,,,601.1155152000138,None,601.1155152000138,None,600.6151763000089,None,j,0.40148270000645425,601.1155152000138,None,,,,,,,,,,,,,n,001,2021_Jul_07_1437,toilet,2021.1.3,99.89451140095132,
180,180,-4,4,0.85,,,,,1,0,1,0,1,31,87,28,,,,,,,,,,,,,,,,,,,,,,,602.5164723000053,None,602.5164723000053,None,602.0161242000031,None,f,0.42470209999009967,602.5164723000053,None,,,,,,,,,,,,,n,001,2021_Jul_07_1437,toilet,2021.1.3,99.89451140095132,
0,0,4,-4,1.15,,,,,1,0,1,0,1,32,88,13,,,,,,,,,,,,,,,,,,,,,,,603.9574439999997,None,603.9574439999997,None,603.4571018000133,None,f,0.4557384999934584,603.9574439999997,None,,,,,,,,,,,,,n,001,2021_Jul_07_1437,toilet,2021.1.3,99.89451140095132,
180,0,-4,4,1.03,,,,,1,0,1,0,1,33,89,46,,,,,,,,,,,,,,,,,,,,,,,605.4185439000139,None,605.4185439000139,None,604.9181105000025,None,j,0.45042900000407826,605.4185439000139,None,,,,,,,,,,,,,n,001,2021_Jul_07_1437,toilet,2021.1.3,99.89451140095132,
0,0,4,-4,1.03,,,,,1,0,1,0,1,34,90,11,,,,,,,,,,,,,,,,,,,,,,,606.8694993000099,None,606.8694993000099,None,606.3691553000099,None,j,0.6955236000067089,606.8694993000099,None,,,,,,,,,,,,,n,001,2021_Jul_07_1437,toilet,2021.1.3,99.89451140095132,
180,0,-4,4,0.85,,,,,1,0,1,0,1,35,91,42,,,,,,,,,,,,,,,,,,,,,,,608.5705806000042,None,608.5705806000042,None,608.0702523000073,None,f,0.38645330000144895,608.5705806000042,None,,,,,,,,,,,,,n,001,2021_Jul_07_1437,toilet,2021.1.3,99.89451140095132,
180,180,-4,4,1.15,,,,,1,0,1,0,1,36,92,34,,,,,,,,,,,,,,,,,,,,,,,609.9615185000002,None,609.9615185000002,None,609.4611863000027,None,j,0.38756869999633636,609.9615185000002,None,,,,,,,,,,,,,n,001,2021_Jul_07_1437,toilet,2021.1.3,99.89451140095132,
0,180,4,-4,1.0,,,,,1,0,1,0,1,37,93,24,,,,,,,,,,,,,,,,,,,,,,,611.3624705000111,None,611.3624705000111,None,610.8621316000063,None,j,0.4426831000018865,611.3624705000111,None,,,,,,,,,,,,,n,001,2021_Jul_07_1437,toilet,2021.1.3,99.89451140095132,
180,0,4,-4,0.85,,,,,1,0,1,0,1,38,94,49,,,,,,,,,,,,,,,,,,,,,,,612.8234771000134,None,612.8234771000134,None,612.3231615000113,None,j,0.3575773000047775,612.8234771000134,None,,,,,,,,,,,,,n,001,2021_Jul_07_1437,toilet,2021.1.3,99.89451140095132,
180,180,-4,4,0.97,,,,,1,0,1,0,1,39,95,30,,,,,,,,,,,,,,,,,,,,,,,614.1944696000137,None,614.1944696000137,None,613.694144500012,None,j,0.41052530000160914,614.1944696000137,None,,,,,,,,,,,,,n,001,2021_Jul_07_1437,toilet,2021.1.3,99.89451140095132,
180,0,-4,4,0.94,,,,,1,0,1,0,1,40,96,43,,,,,,,,,,,,,,,,,,,,,,,615.6053542000009,None,615.6053542000009,None,615.1050141000014,None,f,0.4556090999976732,615.6053542000009,None,,,,,,,,,,,,,n,001,2021_Jul_07_1437,toilet,2021.1.3,99.89451140095132,
180,180,4,-4,1.15,,,,,1,0,1,0,1,41,97,41,,,,,,,,,,,,,,,,,,,,,,,617.0663416000025,None,617.0663416000025,None,616.5660086999997,None,f,0.5465551999950549,617.0663416000025,None,,,,,,,,,,,,,n,001,2021_Jul_07_1437,toilet,2021.1.3,99.89451140095132,
0,180,-4,4,1.03,,,,,1,0,1,0,1,42,98,18,,,,,,,,,,,,,,,,,,,,,,,618.6173957000137,None,618.6173957000137,None,618.1170560000028,None,j,0.3396913000033237,618.6173957000137,None,,,,,,,,,,,,,n,001,2021_Jul_07_1437,toilet,2021.1.3,99.89451140095132,
0,180,4,-4,0.97,,,,,1,0,1,0,1,43,99,23,,,,,,,,,,,,,,,,,,,,,,,619.968314800004,None,619.968314800004,None,619.4679810000089,None,j,0.3969310999964364,619.968314800004,None,,,,,,,,,,,,,n,001,2021_Jul_07_1437,toilet,2021.1.3,99.89451140095132,
180,0,4,-4,1.06,,,,,1,0,1,0,1,44,100,54,,,,,,,,,,,,,,,,,,,,,,,621.3792676000012,None,621.3792676000012,None,620.8790148000116,None,f,0.4577246999979252,621.3792676000012,None,,,,,,,,,,,,,n,001,2021_Jul_07_1437,toilet,2021.1.3,99.89451140095132,
0,180,-4,4,1.0,,,,,1,0,1,0,1,45,101,17,,,,,,,,,,,,,,,,,,,,,,,622.8502665000124,None,622.8502665000124,None,622.34992410001,None,f,0.6667197000060696,622.8502665000124,None,,,,,,,,,,,,,n,001,2021_Jul_07_1437,toilet,2021.1.3,99.89451140095132,
180,180,4,-4,0.97,,,,,1,0,1,0,1,46,102,37,,,,,,,,,,,,,,,,,,,,,,,624.5213953000057,None,624.5213953000057,None,624.0210563,None,j,0.45174669999687467,624.5213953000057,None,,,,,,,,,,,,,n,001,2021_Jul_07_1437,toilet,2021.1.3,99.89451140095132,
0,0,-4,4,0.85,,,,,1,0,1,0,1,47,103,0,,,,,,,,,,,,,,,,,,,,,,,625.9923908000055,None,625.9923908000055,None,625.4920573000127,None,f,0.46863309999753255,625.9923908000055,None,,,,,,,,,,,,,n,001,2021_Jul_07_1437,toilet,2021.1.3,99.89451140095132,
180,0,-4,4,1.0,,,,,1,0,1,0,1,48,104,45,,,,,,,,,,,,,,,,,,,,,,,627.4734224000131,None,627.4734224000131,None,626.9730660000059,None,j,0.3636402999982238,627.4734224000131,None,,,,,,,,,,,,,n,001,2021_Jul_07_1437,toilet,2021.1.3,99.89451140095132,
180,180,4,-4,0.85,,,,,1,0,1,0,1,49,105,35,,,,,,,,,,,,,,,,,,,,,,,628.8444128000119,None,628.8444128000119,None,628.3440742000093,None,j,0.3845601000066381,628.8444128000119,None,,,,,,,,,,,,,n,001,2021_Jul_07_1437,toilet,2021.1.3,99.89451140095132,
0,180,-4,4,1.06,,,,,1,0,1,0,1,50,106,19,,,,,,,,,,,,,,,,,,,,,,,630.2352782000089,None,630.2352782000089,None,629.7349401000101,None,j,0.7057295000122394,630.2352782000089,None,,,,,,,,,,,,,n,001,2021_Jul_07_1437,toilet,2021.1.3,99.89451140095132,
0,180,4,-4,0.94,,,,,1,0,1,0,1,51,107,22,,,,,,,,,,,,,,,,,,,,,,,631.9464446000056,None,631.9464446000056,None,631.4461028000078,None,j,0.41858050000155345,631.9464446000056,None,,,,,,,,,,,,,n,001,2021_Jul_07_1437,toilet,2021.1.3,99.89451140095132,
180,180,-4,4,0.94,,,,,1,0,1,0,1,52,108,29,,,,,,,,,,,,,,,,,,,,,,,633.3674096000032,None,633.3674096000032,None,632.8670680000068,None,f,0.4375866999907885,633.3674096000032,None,,,,,,,,,,,,,n,001,2021_Jul_07_1437,toilet,2021.1.3,99.89451140095132,
0,180,-4,4,1.15,,,,,1,0,1,0,1,53,109,20,,,,,,,,,,,,,,,,,,,,,,,634.8084742000065,None,634.8084742000065,None,634.3080417000019,None,j,0.3084820999938529,634.8084742000065,None,,,,,,,,,,,,,n,001,2021_Jul_07_1437,toilet,2021.1.3,99.89451140095132,
180,180,-4,4,1.03,,,,,1,0,1,0,1,54,110,32,,,,,,,,,,,,,,,,,,,,,,,636.129296900006,None,636.129296900006,None,635.6290083000058,None,j,0.7956706000113627,636.129296900006,None,,,,,,,,,,,,,n,001,2021_Jul_07_1437,toilet,2021.1.3,99.89451140095132,
0,0,-4,4,1.0,,,,,1,0,1,0,1,55,111,3,,,,,,,,,,,,,,,,,,,,,,,637.9305086000095,None,637.9305086000095,None,637.4301715000038,None,f,0.578454700007569,637.9305086000095,None,,,,,,,,,,,,,n,001,2021_Jul_07_1437,toilet,2021.1.3,99.89451140095132,
,,,,,,,,,1,0,1,0,,,,,,,,,,,,,,,,,,,,,,,,,,,,,,,,,,,,,638.5209022000054,None,space,1.0921107000031043,638.5209022000054,None,,,,,,,n,001,2021_Jul_07_1437,toilet,2021.1.3,99.89451140095132,
0,180,4,-4,0.94,,,,,2,0,2,0,0,0,0,22,,,,,,,,,,,,,,,,,639.6316921000107,None,space,0.8933462999993935,639.6316921000107,None,641.5529554000095,None,641.5529554000095,None,641.0526185000053,None,j,0.6040509000013117,641.5529554000095,None,,,,,,,,,,,,,n,001,2021_Jul_07_1437,toilet,2021.1.3,99.89451140095132,
180,0,4,-4,1.06,,,,,2,0,2,0,0,1,1,54,,,,,,,,,,,,,,,,,,,,,,,643.1641394000035,None,643.1641394000035,None,642.6637994000048,None,f,0.44882370000414085,643.1641394000035,None,,,,,,,,,,,,,n,001,2021_Jul_07_1437,toilet,2021.1.3,99.89451140095132,
0,0,4,-4,1.15,,,,,2,0,2,0,0,2,2,13,,,,,,,,,,,,,,,,,,,,,,,644.6150346000068,None,644.6150346000068,None,644.1146959000034,None,f,0.3739994000061415,644.6150346000068,None,,,,,,,,,,,,,n,001,2021_Jul_07_1437,toilet,2021.1.3,99.89451140095132,
180,180,-4,4,1.15,,,,,2,0,2,0,0,3,3,34,,,,,,,,,,,,,,,,,,,,,,,645.9959457000077,None,645.9959457000077,None,645.4956336000032,None,j,0.3051726999983657,645.9959457000077,None,,,,,,,,,,,,,n,001,2021_Jul_07_1437,toilet,2021.1.3,99.89451140095132,
0,0,-4,4,0.94,,,,,2,0,2,0,0,4,4,1,,,,,,,,,,,,,,,,,,,,,,,647.3068645000021,None,647.3068645000021,None,646.8065220000135,None,f,0.3863550999958534,647.3068645000021,None,,,,,,,,,,,,,n,001,2021_Jul_07_1437,toilet,2021.1.3,99.89451140095132,
0,0,-4,4,1.03,,,,,2,0,2,0,0,5,5,4,,,,,,,,,,,,,,,,,,,,,,,648.7078208000021,None,648.7078208000021,None,648.2074723000114,None,j,0.4092067000019597,648.7078208000021,None,,,,,,,,,,,,,n,001,2021_Jul_07_1437,toilet,2021.1.3,99.89451140095132,
0,180,-4,4,1.06,,,,,2,0,2,0,0,6,6,19,,,,,,,,,,,,,,,,,,,,,,,650.1288566000003,None,650.1288566000003,None,649.6284384000028,None,j,0.5243042000074638,650.1288566000003,None,,,,,,,,,,,,,n,001,2021_Jul_07_1437,toilet,2021.1.3,99.89451140095132,
0,0,-4,4,1.15,,,,,2,0,2,0,0,7,7,6,,,,,,,,,,,,,,,,,,,,,,,651.6698535000032,None,651.6698535000032,None,651.1695223000133,None,j,0.39122399999178015,651.6698535000032,None,,,,,,,,,,,,,n,001,2021_Jul_07_1437,toilet,2021.1.3,99.89451140095132,
0,0,4,-4,1.03,,,,,2,0,2,0,0,8,8,11,,,,,,,,,,,,,,,,,,,,,,,653.0607622000098,None,653.0607622000098,None,652.5604552000004,None,f,0.4242009000008693,653.0607622000098,None,,,,,,,,,,,,,n,001,2021_Jul_07_1437,toilet,2021.1.3,99.89451140095132,
0,180,4,-4,1.03,,,,,2,0,2,0,0,9,9,25,,,,,,,,,,,,,,,,,,,,,,,654.491735500007,None,654.491735500007,None,653.9913973000075,None,j,0.401334099995438,654.491735500007,None,,,,,,,,,,,,,n,001,2021_Jul_07_1437,toilet,2021.1.3,99.89451140095132,
180,0,4,-4,0.94,,,,,2,0,2,0,0,10,10,50,,,,,,,,,,,,,,,,,,,,,,,655.8926817000029,None,655.8926817000029,None,655.392344500011,None,j,0.4883951999945566,655.8926817000029,None,,,,,,,,,,,,,n,001,2021_Jul_07_1437,toilet,2021.1.3,99.89451140095132,
180,0,4,-4,1.15,,,,,2,0,2,0,0,11,11,55,,,,,,,,,,,,,,,,,,,,,,,657.3837682000012,None,657.3837682000012,None,656.8833556000027,None,f,0.4054743000015151,657.3837682000012,None,,,,,,,,,,,,,n,001,2021_Jul_07_1437,toilet,2021.1.3,99.89451140095132,
0,180,-4,4,0.85,,,,,2,0,2,0,0,12,12,14,,,,,,,,,,,,,,,,,,,,,,,658.8046624000126,None,658.8046624000126,None,658.3044033000042,None,f,0.40841800000634976,658.8046624000126,None,,,,,,,,,,,,,n,001,2021_Jul_07_1437,toilet,2021.1.3,99.89451140095132,
0,0,-4,4,1.06,,,,,2,0,2,0,0,13,13,5,,,,,,,,,,,,,,,,,,,,,,,660.2156146000052,None,660.2156146000052,None,659.7153025000007,None,j,0.3893392999889329,660.2156146000052,None,,,,,,,,,,,,,n,001,2021_Jul_07_1437,toilet,2021.1.3,99.89451140095132,
0,0,4,-4,0.85,,,,,2,0,2,0,0,14,14,7,,,,,,,,,,,,,,,,,,,,,,,661.606564200003,None,661.606564200003,None,661.1062273000134,None,j,0.3584636000014143,661.606564200003,None,,,,,,,,,,,,,n,001,2021_Jul_07_1437,toilet,2021.1.3,99.89451140095132,
180,180,4,-4,1.0,,,,,2,0,2,0,0,15,15,38,,,,,,,,,,,,,,,,,,,,,,,662.9774939000054,None,662.9774939000054,None,662.4771565000119,None,f,0.3155953999958001,662.9774939000054,None,,,,,,,,,,,,,n,001,2021_Jul_07_1437,toilet,2021.1.3,99.89451140095132,
0,180,-4,4,1.15,,,,,2,0,2,0,0,16,16,20,,,,,,,,,,,,,,,,,,,,,,,664.3083984000114,None,664.3083984000114,None,663.808148000011,None,j,0.40866620000451803,664.3083984000114,None,,,,,,,,,,,,,n,001,2021_Jul_07_1437,toilet,2021.1.3,99.89451140095132,
0,180,4,-4,1.06,,,,,2,0,2,0,0,17,17,26,,,,,,,,,,,,,,,,,,,,,,,665.7194464000058,None,665.7194464000058,None,665.2190547000064,None,f,0.34158389999356586,665.7194464000058,None,,,,,,,,,,,,,n,001,2021_Jul_07_1437,toilet,2021.1.3,99.89451140095132,
0,0,-4,4,1.0,,,,,2,0,2,0,0,18,18,3,,,,,,,,,,,,,,,,,,,,,,,667.0702728000033,None,667.0702728000033,None,666.5699299000116,None,f,0.36674800000037067,667.0702728000033,None,,,,,,,,,,,,,n,001,2021_Jul_07_1437,toilet,2021.1.3,99.89451140095132,
0,180,-4,4,1.0,,,,,2,0,2,0,0,19,19,17,,,,,,,,,,,,,,,,,,,,,,,668.4412025000056,None,668.4412025000056,None,667.9408658000029,None,j,0.35580530000152066,668.4412025000056,None,,,,,,,,,,,,,n,001,2021_Jul_07_1437,toilet,2021.1.3,99.89451140095132,
180,180,-4,4,1.0,,,,,2,0,2,0,0,20,20,31,,,,,,,,,,,,,,,,,,,,,,,669.802125400005,None,669.802125400005,None,669.3017865000002,None,f,0.41889759998593945,669.802125400005,None,,,,,,,,,,,,,n,001,2021_Jul_07_1437,toilet,2021.1.3,99.89451140095132,
180,180,4,-4,0.85,,,,,2,0,2,0,0,21,21,35,,,,,,,,,,,,,,,,,,,,,,,671.2331000000122,None,671.2331000000122,None,670.7327572000067,None,j,0.37992160000430886,671.2331000000122,None,,,,,,,,,,,,,n,001,2021_Jul_07_1437,toilet,2021.1.3,99.89451140095132,
0,0,4,-4,1.06,,,,,2,0,2,0,0,22,22,12,,,,,,,,,,,,,,,,,,,,,,,672.624040300012,None,672.624040300012,None,672.123788300014,None,f,0.3809981000085827,672.624040300012,None,,,,,,,,,,,,,n,001,2021_Jul_07_1437,toilet,2021.1.3,99.89451140095132,
0,0,-4,4,0.97,,,,,2,0,2,0,0,23,23,2,,,,,,,,,,,,,,,,,,,,,,,674.0049742000119,None,674.0049742000119,None,673.5046419999999,None,j,0.4879646000044886,674.0049742000119,None,,,,,,,,,,,,,n,001,2021_Jul_07_1437,toilet,2021.1.3,99.89451140095132,
180,0,-4,4,1.15,,,,,2,0,2,0,0,24,24,48,,,,,,,,,,,,,,,,,,,,,,,675.4959946000017,None,675.4959946000017,None,674.9956543000008,None,j,0.4530012000032002,675.4959946000017,None,,,,,,,,,,,,,n,001,2021_Jul_07_1437,toilet,2021.1.3,99.89451140095132,
180,180,4,-4,0.97,,,,,2,0,2,0,0,25,25,37,,,,,,,,,,,,,,,,,,,,,,,676.9569753000105,None,676.9569753000105,None,676.4566376000002,None,j,1.0241893000056734,676.9569753000105,None,,,,,,,,,,,,,n,001,2021_Jul_07_1437,toilet,2021.1.3,99.89451140095132,
180,180,4,-4,0.94,,,,,2,0,2,0,0,26,26,36,,,,,,,,,,,,,,,,,,,,,,,679.0083761000133,None,679.0083761000133,None,678.5081200000132,None,j,0.5248450000071898,679.0083761000133,None,,,,,,,,,,,,,n,001,2021_Jul_07_1437,toilet,2021.1.3,99.89451140095132,
0,0,-4,4,0.85,,,,,2,0,2,0,0,27,27,0,,,,,,,,,,,,,,,,,,,,,,,680.5494162000105,None,680.5494162000105,None,680.0491531000007,None,f,0.2955558999965433,680.5494162000105,None,,,,,,,,,,,,,n,001,2021_Jul_07_1437,toilet,2021.1.3,99.89451140095132,
180,180,-4,4,0.97,,,,,2,0,2,0,0,28,28,30,,,,,,,,,,,,,,,,,,,,,,,681.8502931000112,None,681.8502931000112,None,681.3499530000117,None,j,0.3387737000011839,681.8502931000112,None,,,,,,,,,,,,,n,001,2021_Jul_07_1437,toilet,2021.1.3,99.89451140095132,
180,0,4,-4,0.97,,,,,2,0,2,0,0,29,29,51,,,,,,,,,,,,,,,,,,,,,,,683.1912108000106,None,683.1912108000106,None,682.6908653999999,None,j,0.43796160000783857,683.1912108000106,None,,,,,,,,,,,,,n,001,2021_Jul_07_1437,toilet,2021.1.3,99.89451140095132,
180,0,4,-4,0.85,,,,,2,0,2,0,0,30,30,49,,,,,,,,,,,,,,,,,,,,,,,684.6421977999998,None,684.6421977999998,None,684.1418742000096,None,j,0.45885619999899063,684.6421977999998,None,,,,,,,,,,,,,n,001,2021_Jul_07_1437,toilet,2021.1.3,99.89451140095132,
0,180,-4,4,1.03,,,,,2,0,2,0,0,31,31,18,,,,,,,,,,,,,,,,,,,,,,,686.1132008000131,None,686.1132008000131,None,685.6128517000034,None,j,0.4118455999996513,686.1132008000131,None,,,,,,,,,,,,,n,001,2021_Jul_07_1437,toilet,2021.1.3,99.89451140095132,
180,0,-4,4,0.94,,,,,2,0,2,0,0,32,32,43,,,,,,,,,,,,,,,,,,,,,,,687.5342449000018,None,687.5342449000018,None,687.0338553000038,None,f,0.36674610000045504,687.5342449000018,None,,,,,,,,,,,,,n,001,2021_Jul_07_1437,toilet,2021.1.3,99.89451140095132,
180,180,-4,4,0.85,,,,,2,0,2,0,0,33,33,28,,,,,,,,,,,,,,,,,,,,,,,688.9150944000139,None,688.9150944000139,None,688.4147542000137,None,f,0.4898490000050515,688.9150944000139,None,,,,,,,,,,,,,n,001,2021_Jul_07_1437,toilet,2021.1.3,99.89451140095132,
0,180,4,-4,1.0,,,,,2,0,2,0,0,34,34,24,,,,,,,,,,,,,,,,,,,,,,,690.4061061000102,None,690.4061061000102,None,689.9057731000066,None,j,0.3429318999988027,690.4061061000102,None,,,,,,,,,,,,,n,001,2021_Jul_07_1437,toilet,2021.1.3,99.89451140095132,
180,0,4,-4,1.0,,,,,2,0,2,0,0,35,35,52,,,,,,,,,,,,,,,,,,,,,,,691.7670306000073,None,691.7670306000073,None,691.2666865000065,None,j,0.31001039998955093,691.7670306000073,None,,,,,,,,,,,,,n,001,2021_Jul_07_1437,toilet,2021.1.3,99.89451140095132,
0,180,4,-4,0.97,,,,,2,0,2,0,0,36,36,23,,,,,,,,,,,,,,,,,,,,,,,693.0879217000038,None,693.0879217000038,None,692.5875864000118,None,j,0.3011297999910312,693.0879217000038,None,,,,,,,,,,,,,n,001,2021_Jul_07_1437,toilet,2021.1.3,99.89451140095132,
180,0,-4,4,1.06,,,,,2,0,2,0,0,37,37,47,,,,,,,,,,,,,,,,,,,,,,,694.3988875000068,None,694.3988875000068,None,693.8984749000083,None,j,0.4461771999922348,694.3988875000068,None,,,,,,,,,,,,,n,001,2021_Jul_07_1437,toilet,2021.1.3,99.89451140095132,
0,180,-4,4,0.94,,,,,2,0,2,0,0,38,38,15,,,,,,,,,,,,,,,,,,,,,,,695.8598114000051,None,695.8598114000051,None,695.3595069000003,None,f,0.4251105000003008,695.8598114000051,None,,,,,,,,,,,,,n,001,2021_Jul_07_1437,toilet,2021.1.3,99.89451140095132,
180,0,-4,4,1.0,,,,,2,0,2,0,0,39,39,45,,,,,,,,,,,,,,,,,,,,,,,697.2907776000065,None,697.2907776000065,None,696.7904330000019,None,j,0.4181450999894878,697.2907776000065,None,,,,,,,,,,,,,n,001,2021_Jul_07_1437,toilet,2021.1.3,99.89451140095132,
180,180,-4,4,1.06,,,,,2,0,2,0,0,40,40,33,,,,,,,,,,,,,,,,,,,,,,,698.7117421000003,None,698.7117421000003,None,698.2114023000031,None,j,0.34126250000554137,698.7117421000003,None,,,,,,,,,,,,,n,001,2021_Jul_07_1437,toilet,2021.1.3,99.89451140095132,
180,180,4,-4,1.03,,,,,2,0,2,0,0,41,41,39,,,,,,,,,,,,,,,,,,,,,,,700.0526515000092,None,700.0526515000092,None,699.5523151000089,None,f,0.47230570000829175,700.0526515000092,None,,,,,,,,,,,,,n,001,2021_Jul_07_1437,toilet,2021.1.3,99.89451140095132,
180,180,4,-4,1.06,,,,,2,0,2,0,0,42,42,40,,,,,,,,,,,,,,,,,,,,,,,701.533731500007,None,701.533731500007,None,701.033313100008,None,f,0.3992606999963755,701.533731500007,None,,,,,,,,,,,,,n,001,2021_Jul_07_1437,toilet,2021.1.3,99.89451140095132,
180,180,-4,4,0.94,,,,,2,0,2,0,0,43,43,29,,,,,,,,,,,,,,,,,,,,,,,702.9446157000057,None,702.9446157000057,None,702.4442736000055,None,f,0.3005116000131238,702.9446157000057,None,,,,,,,,,,,,,n,001,2021_Jul_07_1437,toilet,2021.1.3,99.89451140095132,
0,0,4,-4,1.0,,,,,2,0,2,0,0,44,44,10,,,,,,,,,,,,,,,,,,,,,,,704.2455008000106,None,704.2455008000106,None,703.7451639000064,None,f,0.3436357000027783,704.2455008000106,None,,,,,,,,,,,,,n,001,2021_Jul_07_1437,toilet,2021.1.3,99.89451140095132,
0,0,4,-4,0.94,,,,,2,0,2,0,0,45,45,8,,,,,,,,,,,,,,,,,,,,,,,705.5964173000102,None,705.5964173000102,None,705.0960513000027,None,j,0.4167448000080185,705.5964173000102,None,,,,,,,,,,,,,n,001,2021_Jul_07_1437,toilet,2021.1.3,99.89451140095132,
180,0,-4,4,0.85,,,,,2,0,2,0,0,46,46,42,,,,,,,,,,,,,,,,,,,,,,,707.0273810000072,None,707.0273810000072,None,706.5270420000015,None,f,0.4257807999965735,707.0273810000072,None,,,,,,,,,,,,,n,001,2021_Jul_07_1437,toilet,2021.1.3,99.89451140095132,
0,180,4,-4,0.85,,,,,2,0,2,0,0,47,47,21,,,,,,,,,,,,,,,,,,,,,,,708.4684447000036,None,708.4684447000036,None,707.9680175000103,None,j,0.3607306000048993,708.4684447000036,None,,,,,,,,,,,,,n,001,2021_Jul_07_1437,toilet,2021.1.3,99.89451140095132,
180,0,-4,4,0.97,,,,,2,0,2,0,0,48,48,44,,,,,,,,,,,,,,,,,,,,,,,709.8393672000093,None,709.8393672000093,None,709.3390470000013,None,f,0.541794500008109,709.8393672000093,None,,,,,,,,,,,,,n,001,2021_Jul_07_1437,toilet,2021.1.3,99.89451140095132,
180,180,-4,4,1.03,,,,,2,0,2,0,0,49,49,32,,,,,,,,,,,,,,,,,,,,,,,711.3803292000084,None,711.3803292000084,None,710.8799907000066,None,j,0.5847210000065388,711.3803292000084,None,,,,,,,,,,,,,n,001,2021_Jul_07_1437,toilet,2021.1.3,99.89451140095132,
180,0,4,-4,1.03,,,,,2,0,2,0,0,50,50,53,,,,,,,,,,,,,,,,,,,,,,,712.9714106000029,None,712.9714106000029,None,712.4710722000018,None,f,0.3857294000044931,712.9714106000029,None,,,,,,,,,,,,,n,001,2021_Jul_07_1437,toilet,2021.1.3,99.89451140095132,
0,0,4,-4,0.97,,,,,2,0,2,0,0,51,51,9,,,,,,,,,,,,,,,,,,,,,,,714.3723609000008,None,714.3723609000008,None,713.8720196000068,None,j,0.4886337000061758,714.3723609000008,None,,,,,,,,,,,,,n,001,2021_Jul_07_1437,toilet,2021.1.3,99.89451140095132,
0,180,4,-4,1.15,,,,,2,0,2,0,0,52,52,27,,,,,,,,,,,,,,,,,,,,,,,715.8733786000084,None,715.8733786000084,None,715.3731187000085,None,f,0.29958729998907074,715.8733786000084,None,,,,,,,,,,,,,n,001,2021_Jul_07_1437,toilet,2021.1.3,99.89451140095132,
180,0,-4,4,1.03,,,,,2,0,2,0,0,53,53,46,,,,,,,,,,,,,,,,,,,,,,,717.1843625000038,None,717.1843625000038,None,716.6840177000122,None,j,0.3485646000044653,717.1843625000038,None,,,,,,,,,,,,,n,001,2021_Jul_07_1437,toilet,2021.1.3,99.89451140095132,
180,180,4,-4,1.15,,,,,2,0,2,0,0,54,54,41,,,,,,,,,,,,,,,,,,,,,,,718.545191000012,None,718.545191000012,None,718.0448510999995,None,f,0.5397410000005038,718.545191000012,None,,,,,,,,,,,,,n,001,2021_Jul_07_1437,toilet,2021.1.3,99.89451140095132,
0,180,-4,4,0.97,,,,,2,0,2,0,0,55,55,16,,,,,,,,,,,,,,,,,,,,,,,720.086255400005,None,720.086255400005,None,719.5859049000137,None,f,0.90287740000349,720.086255400005,None,,,,,,,,,,,,,n,001,2021_Jul_07_1437,toilet,2021.1.3,99.89451140095132,
180,180,-4,4,0.94,,,,,2,0,2,0,1,0,56,29,,,,,,,,,,,,,,,,,,,,,,,722.0075473000034,None,722.0075473000034,None,721.5072101000114,None,f,0.43753309999010526,722.0075473000034,None,,,,,,,,,,,,,n,001,2021_Jul_07_1437,toilet,2021.1.3,99.89451140095132,
0,0,4,-4,1.03,,,,,2,0,2,0,1,1,57,11,,,,,,,,,,,,,,,,,,,,,,,723.4586176000012,None,723.4586176000012,None,722.9582160999998,None,f,0.5383588999975473,723.4586176000012,None,,,,,,,,,,,,,n,001,2021_Jul_07_1437,toilet,2021.1.3,99.89451140095132,
0,180,-4,4,0.85,,,,,2,0,2,0,1,2,58,14,,,,,,,,,,,,,,,,,,,,,,,725.0095970000111,None,725.0095970000111,None,724.5093152000045,None,f,0.4434179999952903,725.0095970000111,None,,,,,,,,,,,,,n,001,2021_Jul_07_1437,toilet,2021.1.3,99.89451140095132,
180,180,4,-4,0.85,,,,,2,0,2,0,1,3,59,35,,,,,,,,,,,,,,,,,,,,,,,726.4605676000065,None,726.4605676000065,None,725.9602268000017,None,j,0.43251210000016727,726.4605676000065,None,,,,,,,,,,,,,n,001,2021_Jul_07_1437,toilet,2021.1.3,99.89451140095132,
0,0,4,-4,1.06,,,,,2,0,2,0,1,4,60,12,,,,,,,,,,,,,,,,,,,,,,,727.9015474000043,None,727.9015474000043,None,727.4012074000057,None,f,0.5114155000046594,727.9015474000043,None,,,,,,,,,,,,,n,001,2021_Jul_07_1437,toilet,2021.1.3,99.89451140095132,
0,180,-4,4,0.97,,,,,2,0,2,0,1,5,61,16,,,,,,,,,,,,,,,,,,,,,,,729.4225698000082,None,729.4225698000082,None,728.9222294000065,None,f,0.6065546999889193,729.4225698000082,None,,,,,,,,,,,,,n,001,2021_Jul_07_1437,toilet,2021.1.3,99.89451140095132,
180,180,4,-4,0.94,,,,,2,0,2,0,1,6,62,36,,,,,,,,,,,,,,,,,,,,,,,731.043754000013,None,731.043754000013,None,730.5434323000081,None,j,0.4892320000071777,731.043754000013,None,,,,,,,,,,,,,n,001,2021_Jul_07_1437,toilet,2021.1.3,99.89451140095132,
0,0,-4,4,0.94,,,,,2,0,2,0,1,7,63,1,,,,,,,,,,,,,,,,,,,,,,,732.544710400005,None,732.544710400005,None,732.0444212000002,None,f,0.41228960000444204,732.544710400005,None,,,,,,,,,,,,,n,001,2021_Jul_07_1437,toilet,2021.1.3,99.89451140095132,
0,0,-4,4,0.85,,,,,2,0,2,0,1,8,64,0,,,,,,,,,,,,,,,,,,,,,,,733.9656601000024,None,733.9656601000024,None,733.4653257000027,None,f,0.33541860000696033,733.9656601000024,None,,,,,,,,,,,,,n,001,2021_Jul_07_1437,toilet,2021.1.3,99.89451140095132,
180,0,-4,4,0.94,,,,,2,0,2,0,1,9,65,43,,,,,,,,,,,,,,,,,,,,,,,735.3265634000127,None,735.3265634000127,None,734.8262444000138,None,f,0.5904111999989254,735.3265634000127,None,,,,,,,,,,,,,n,001,2021_Jul_07_1437,toilet,2021.1.3,99.89451140095132,
0,0,4,-4,0.97,,,,,2,0,2,0,1,10,66,9,,,,,,,,,,,,,,,,,,,,,,,736.9276712000137,None,736.9276712000137,None,736.4273324000096,None,j,0.47725399999762885,736.9276712000137,None,,,,,,,,,,,,,n,001,2021_Jul_07_1437,toilet,2021.1.3,99.89451140095132,
0,0,4,-4,1.15,,,,,2,0,2,0,1,11,67,13,,,,,,,,,,,,,,,,,,,,,,,738.4087470000086,None,738.4087470000086,None,737.9084208000131,None,f,1.3481343000021297,738.4087470000086,None,,,,,,,,,,,,,n,001,2021_Jul_07_1437,toilet,2021.1.3,99.89451140095132,
180,0,-4,4,1.0,,,,,2,0,2,0,1,12,68,45,,,,,,,,,,,,,,,,,,,,,,,740.7602693000081,None,740.7602693000081,None,740.2599315000116,None,j,0.48463960000663064,740.7602693000081,None,,,,,,,,,,,,,n,001,2021_Jul_07_1437,toilet,2021.1.3,99.89451140095132,
180,180,4,-4,0.97,,,,,2,0,2,0,1,13,69,37,,,,,,,,,,,,,,,,,,,,,,,742.2512802000128,None,742.2512802000128,None,741.7509438000125,None,j,0.5137610000092536,742.2512802000128,None,,,,,,,,,,,,,n,001,2021_Jul_07_1437,toilet,2021.1.3,99.89451140095132,
0,180,4,-4,0.85,,,,,2,0,2,0,1,14,70,21,,,,,,,,,,,,,,,,,,,,,,,743.7823182000138,None,743.7823182000138,None,743.2819759000122,None,j,0.4706986999954097,743.7823182000138,None,,,,,,,,,,,,,n,001,2021_Jul_07_1437,toilet,2021.1.3,99.89451140095132,
180,0,4,-4,1.06,,,,,2,0,2,0,1,15,71,54,,,,,,,,,,,,,,,,,,,,,,,745.2633171000052,None,745.2633171000052,None,744.7630683000025,None,f,0.3815933000005316,745.2633171000052,None,,,,,,,,,,,,,n,001,2021_Jul_07_1437,toilet,2021.1.3,99.89451140095132,
180,0,4,-4,1.0,,,,,2,0,2,0,1,16,72,52,,,,,,,,,,,,,,,,,,,,,,,746.6443048000074,None,746.6443048000074,None,746.1440085000067,None,f,0.4726616000116337,746.6443048000074,None,,,,,,,,,,,,,n,001,2021_Jul_07_1437,toilet,2021.1.3,99.89451140095132,
0,180,-4,4,1.0,,,,,2,0,2,0,1,17,73,17,,,,,,,,,,,,,,,,,,,,,,,748.1352698000119,None,748.1352698000119,None,747.6349267000041,None,j,0.45372210000641644,748.1352698000119,None,,,,,,,,,,,,,n,001,2021_Jul_07_1437,toilet,2021.1.3,99.89451140095132,
0,0,-4,4,1.06,,,,,2,0,2,0,1,18,74,5,,,,,,,,,,,,,,,,,,,,,,,749.5962619000056,None,749.5962619000056,None,749.095917300001,None,j,1.4568762999988394,749.5962619000056,None,,,,,,,,,,,,,n,001,2021_Jul_07_1437,toilet,2021.1.3,99.89451140095132,
0,180,4,-4,0.97,,,,,2,0,2,0,1,19,75,23,,,,,,,,,,,,,,,,,,,,,,,752.067933600003,None,752.067933600003,None,751.5676015000063,None,j,0.7931257000018377,752.067933600003,None,,,,,,,,,,,,,n,001,2021_Jul_07_1437,toilet,2021.1.3,99.89451140095132,
0,0,-4,4,1.15,,,,,2,0,2,0,1,20,76,6,,,,,,,,,,,,,,,,,,,,,,,753.8792543000018,None,753.8792543000018,None,753.378864600003,None,j,0.4696587000071304,753.8792543000018,None,,,,,,,,,,,,,n,001,2021_Jul_07_1437,toilet,2021.1.3,99.89451140095132,
0,180,4,-4,1.03,,,,,2,0,2,0,1,21,77,25,,,,,,,,,,,,,,,,,,,,,,,755.3601696000114,None,755.3601696000114,None,754.8598304000043,None,f,0.4927702999993926,755.3601696000114,None,,,,,,,,,,,,,n,001,2021_Jul_07_1437,toilet,2021.1.3,99.89451140095132,
180,0,4,-4,0.85,,,,,2,0,2,0,1,22,78,49,,,,,,,,,,,,,,,,,,,,,,,756.8611879000091,None,756.8611879000091,None,756.360851800011,None,j,0.3838425000139978,756.8611879000091,None,,,,,,,,,,,,,n,001,2021_Jul_07_1437,toilet,2021.1.3,99.89451140095132,
0,180,-4,4,0.94,,,,,2,0,2,0,1,23,79,15,,,,,,,,,,,,,,,,,,,,,,,758.2521336000063,None,758.2521336000063,None,757.7517957000091,None,j,0.3847946000023512,758.2521336000063,None,,,,,,,,,,,,,n,001,2021_Jul_07_1437,toilet,2021.1.3,99.89451140095132,
180,180,4,-4,1.03,,,,,2,0,2,0,1,24,80,39,,,,,,,,,,,,,,,,,,,,,,,759.6431802000006,None,759.6431802000006,None,759.142735100002,None,f,1.4738427999982378,759.6431802000006,None,,,,,,,,,,,,,n,001,2021_Jul_07_1437,toilet,2021.1.3,99.89451140095132,
0,0,4,-4,0.94,,,,,2,0,2,0,1,25,81,8,,,,,,,,,,,,,,,,,,,,,,,762.1347659000021,None,762.1347659000021,None,761.6344243000058,None,j,0.47018580000440124,762.1347659000021,None,,,,,,,,,,,,,n,001,2021_Jul_07_1437,toilet,2021.1.3,99.89451140095132,
0,180,4,-4,1.06,,,,,2,0,2,0,1,26,82,26,,,,,,,,,,,,,,,,,,,,,,,763.6057637000049,None,763.6057637000049,None,763.1054281000106,None,f,0.471351300002425,763.6057637000049,None,,,,,,,,,,,,,n,001,2021_Jul_07_1437,toilet,2021.1.3,99.89451140095132,
180,180,-4,4,1.0,,,,,2,0,2,0,1,27,83,31,,,,,,,,,,,,,,,,,,,,,,,765.0767620000115,None,765.0767620000115,None,764.5764230000059,None,j,0.4721819999977015,765.0767620000115,None,,,,,,,,,,,,,n,001,2021_Jul_07_1437,toilet,2021.1.3,99.89451140095132,
180,180,-4,4,0.85,,,,,2,0,2,0,1,28,84,28,,,,,,,,,,,,,,,,,,,,,,,766.5677717000071,None,766.5677717000071,None,766.0674320000107,None,f,0.35725829999137204,766.5677717000071,None,,,,,,,,,,,,,n,001,2021_Jul_07_1437,toilet,2021.1.3,99.89451140095132,
0,180,-4,4,1.06,,,,,2,0,2,0,1,29,85,19,,,,,,,,,,,,,,,,,,,,,,,767.9287831000111,None,767.9287831000111,None,767.4284544000111,None,j,0.3562722000060603,767.9287831000111,None,,,,,,,,,,,,,n,001,2021_Jul_07_1437,toilet,2021.1.3,99.89451140095132,
0,0,-4,4,1.0,,,,,2,0,2,0,1,30,86,3,,,,,,,,,,,,,,,,,,,,,,,769.2996366000007,None,769.2996366000007,None,768.7993145000073,None,f,0.44131059999926947,769.2996366000007,None,,,,,,,,,,,,,n,001,2021_Jul_07_1437,toilet,2021.1.3,99.89451140095132,
0,180,4,-4,1.0,,,,,2,0,2,0,1,31,87,24,,,,,,,,,,,,,,,,,,,,,,,770.7406102000095,None,770.7406102000095,None,770.240268700014,None,f,1.048273300009896,770.7406102000095,None,,,,,,,,,,,,,n,001,2021_Jul_07_1437,toilet,2021.1.3,99.89451140095132,
0,0,4,-4,1.0,,,,,2,0,2,0,1,32,88,10,,,,,,,,,,,,,,,,,,,,,,,772.7920016999997,None,772.7920016999997,None,772.2916664000077,None,j,0.3889727000059793,772.7920016999997,None,,,,,,,,,,,,,n,001,2021_Jul_07_1437,toilet,2021.1.3,99.89451140095132,
180,0,-4,4,1.06,,,,,2,0,2,0,1,33,89,47,,,,,,,,,,,,,,,,,,,,,,,774.1929369000136,None,774.1929369000136,None,773.6926141000004,None,j,0.4600307999935467,774.1929369000136,None,,,,,,,,,,,,,n,001,2021_Jul_07_1437,toilet,2021.1.3,99.89451140095132,
180,0,-4,4,1.03,,,,,2,0,2,0,1,34,90,46,,,,,,,,,,,,,,,,,,,,,,,775.6639866000041,None,775.6639866000041,None,775.1636084000056,None,j,0.3330914000107441,775.6639866000041,None,,,,,,,,,,,,,n,001,2021_Jul_07_1437,toilet,2021.1.3,99.89451140095132,
180,180,-4,4,1.06,,,,,2,0,2,0,1,35,91,33,,,,,,,,,,,,,,,,,,,,,,,777.0048617000139,None,777.0048617000139,None,776.5045266000088,None,f,1.3121125999896321,777.0048617000139,None,,,,,,,,,,,,,n,001,2021_Jul_07_1437,toilet,2021.1.3,99.89451140095132,
0,180,-4,4,1.15,,,,,2,0,2,0,1,36,92,20,,,,,,,,,,,,,,,,,,,,,,,779.3164388000005,None,779.3164388000005,None,778.8160870000138,None,j,0.5045268999965629,779.3164388000005,None,,,,,,,,,,,,,n,001,2021_Jul_07_1437,toilet,2021.1.3,99.89451140095132,
0,180,-4,4,1.03,,,,,2,0,2,0,1,37,93,18,,,,,,,,,,,,,,,,,,,,,,,780.8274323000078,None,780.8274323000078,None,780.3270961000089,None,j,0.6094903999910457,780.8274323000078,None,,,,,,,,,,,,,n,001,2021_Jul_07_1437,toilet,2021.1.3,99.89451140095132,
180,180,-4,4,0.97,,,,,2,0,2,0,1,38,94,30,,,,,,,,,,,,,,,,,,,,,,,782.4385496000032,None,782.4385496000032,None,781.9381496999995,None,f,0.6143549000116764,782.4385496000032,None,,,,,,,,,,,,,n,001,2021_Jul_07_1437,toilet,2021.1.3,99.89451140095132,
180,0,4,-4,0.97,,,,,2,0,2,0,1,39,95,51,,,,,,,,,,,,,,,,,,,,,,,784.0596280000027,None,784.0596280000027,None,783.5593150000059,None,j,0.4173420000006445,784.0596280000027,None,,,,,,,,,,,,,n,001,2021_Jul_07_1437,toilet,2021.1.3,99.89451140095132,
180,0,4,-4,1.15,,,,,2,0,2,0,1,40,96,55,,,,,,,,,,,,,,,,,,,,,,,785.4806167000061,None,785.4806167000061,None,784.980276000002,None,f,0.46829499999876134,785.4806167000061,None,,,,,,,,,,,,,n,001,2021_Jul_07_1437,toilet,2021.1.3,99.89451140095132,
180,180,4,-4,1.06,,,,,2,0,2,0,1,41,97,40,,,,,,,,,,,,,,,,,,,,,,,786.9516148000112,None,786.9516148000112,None,786.451286200012,None,f,0.42137200001161546,786.9516148000112,None,,,,,,,,,,,,,n,001,2021_Jul_07_1437,toilet,2021.1.3,99.89451140095132,
180,180,4,-4,1.15,,,,,2,0,2,0,1,42,98,41,,,,,,,,,,,,,,,,,,,,,,,788.3725773000042,None,788.3725773000042,None,787.8722381000116,None,f,0.5203220999974292,788.3725773000042,None,,,,,,,,,,,,,n,001,2021_Jul_07_1437,toilet,2021.1.3,99.89451140095132,
180,0,4,-4,0.94,,,,,2,0,2,0,1,43,99,50,,,,,,,,,,,,,,,,,,,,,,,789.8936121000006,None,789.8936121000006,None,789.3932657000114,None,j,0.35928710000007413,789.8936121000006,None,,,,,,,,,,,,,n,001,2021_Jul_07_1437,toilet,2021.1.3,99.89451140095132,
0,0,4,-4,0.85,,,,,2,0,2,0,1,44,100,7,,,,,,,,,,,,,,,,,,,,,,,791.2644828000048,None,791.2644828000048,None,790.7642238000117,None,j,0.4443950999993831,791.2644828000048,None,,,,,,,,,,,,,n,001,2021_Jul_07_1437,toilet,2021.1.3,99.89451140095132,
0,180,4,-4,1.15,,,,,2,0,2,0,1,45,101,27,,,,,,,,,,,,,,,,,,,,,,,792.7155460000067,None,792.7155460000067,None,792.2151801,None,f,0.5293440999957966,792.7155460000067,None,,,,,,,,,,,,,n,001,2021_Jul_07_1437,toilet,2021.1.3,99.89451140095132,
180,0,-4,4,0.85,,,,,2,0,2,0,1,46,102,42,,,,,,,,,,,,,,,,,,,,,,,794.2465658000001,None,794.2465658000001,None,793.746234700011,None,f,0.6303209000034258,794.2465658000001,None,,,,,,,,,,,,,n,001,2021_Jul_07_1437,toilet,2021.1.3,99.89451140095132,
0,0,-4,4,0.97,,,,,2,0,2,0,1,47,103,2,,,,,,,,,,,,,,,,,,,,,,,795.8776629000058,None,795.8776629000058,None,795.3773318000021,None,j,0.5513294999982463,795.8776629000058,None,,,,,,,,,,,,,n,001,2021_Jul_07_1437,toilet,2021.1.3,99.89451140095132,
180,0,4,-4,1.03,,,,,2,0,2,0,1,48,104,53,,,,,,,,,,,,,,,,,,,,,,,797.4287326000049,None,797.4287326000049,None,796.9284766000055,None,j,0.5524265000130981,797.4287326000049,None,,,,,,,,,,,,,n,001,2021_Jul_07_1437,toilet,2021.1.3,99.89451140095132,
180,0,-4,4,0.97,,,,,2,0,2,0,1,49,105,44,,,,,,,,,,,,,,,,,,,,,,,798.9997925000062,None,798.9997925000062,None,798.4994791000063,None,f,1.1410910000122385,798.9997925000062,None,,,,,,,,,,,,,n,001,2021_Jul_07_1437,toilet,2021.1.3,99.89451140095132,
180,180,-4,4,1.15,,,,,2,0,2,0,1,50,106,34,,,,,,,,,,,,,,,,,,,,,,,801.141234300012,None,801.141234300012,None,800.6409024000022,None,j,0.5198193000105675,801.141234300012,None,,,,,,,,,,,,,n,001,2021_Jul_07_1437,toilet,2021.1.3,99.89451140095132,
180,180,4,-4,1.0,,,,,2,0,2,0,1,51,107,38,,,,,,,,,,,,,,,,,,,,,,,802.6722765000013,None,802.6722765000013,None,802.1719330000051,None,f,0.8607360000023618,802.6722765000013,None,,,,,,,,,,,,,n,001,2021_Jul_07_1437,toilet,2021.1.3,99.89451140095132,
180,180,-4,4,1.03,,,,,2,0,2,0,1,52,108,32,,,,,,,,,,,,,,,,,,,,,,,804.5435483000037,None,804.5435483000037,None,804.0432997000025,None,j,0.7973002000071574,804.5435483000037,None,,,,,,,,,,,,,n,001,2021_Jul_07_1437,toilet,2021.1.3,99.89451140095132,
0,180,4,-4,0.94,,,,,2,0,2,0,1,53,109,22,,,,,,,,,,,,,,,,,,,,,,,806.3447718000098,None,806.3447718000098,None,805.8445136000082,None,j,0.42011510000156704,806.3447718000098,None,,,,,,,,,,,,,n,001,2021_Jul_07_1437,toilet,2021.1.3,99.89451140095132,
180,0,-4,4,1.15,,,,,2,0,2,0,1,54,110,48,,,,,,,,,,,,,,,,,,,,,,,807.7657319999998,None,807.7657319999998,None,807.2653890000074,None,j,0.37516759999562055,807.7657319999998,None,,,,,,,,,,,,,n,001,2021_Jul_07_1437,toilet,2021.1.3,99.89451140095132,
0,0,-4,4,1.03,,,,,2,0,2,0,1,55,111,4,,,,,,,,,,,,,,,,,,,,,,,809.1466670000082,None,809.1466670000082,None,808.6463376000029,None,j,0.32243459999153856,809.1466670000082,None,,,,,,,,,,,,,n,001,2021_Jul_07_1437,toilet,2021.1.3,99.89451140095132,
,,,,,,,,,2,0,2,0,,,,,,,,,,,,,,,,,,,,,,,,,,,,,,,,,,,,,809.4969344000128,None,space,0.9800782999955118,809.4969344000128,None,,,,,,,n,001,2021_Jul_07_1437,toilet,2021.1.3,99.89451140095132,
180,180,-4,4,1.15,,,,,3,0,3,0,0,0,0,34,,,,,,,,,,,,,,,,,810.4975875000091,None,space,0.9875448999955552,810.4975875000091,None,812.5090365000069,None,812.5090365000069,None,812.0086793000082,None,j,2.2879188999941107,812.5090365000069,None,,,,,,,,,,,,,n,001,2021_Jul_07_1437,toilet,2021.1.3,99.89451140095132,
180,180,4,-4,0.97,,,,,3,0,3,0,0,1,1,37,,,,,,,,,,,,,,,,,,,,,,,815.8011549000075,None,815.8011549000075,None,815.3108473000029,None,j,0.7237762000004295,815.8011549000075,None,,,,,,,,,,,,,n,001,2021_Jul_07_1437,toilet,2021.1.3,99.89451140095132,
180,0,-4,4,0.85,,,,,3,0,3,0,0,2,2,42,,,,,,,,,,,,,,,,,,,,,,,817.5323524000123,None,817.5323524000123,None,817.032017400008,None,f,0.4326465000049211,817.5323524000123,None,,,,,,,,,,,,,n,001,2021_Jul_07_1437,toilet,2021.1.3,99.89451140095132,
0,0,-4,4,0.97,,,,,3,0,3,0,0,3,3,2,,,,,,,,,,,,,,,,,,,,,,,818.9834312000021,None,818.9834312000021,None,818.4829745000025,None,j,0.6775308000069344,818.9834312000021,None,,,,,,,,,,,,,n,001,2021_Jul_07_1437,toilet,2021.1.3,99.89451140095132,
0,180,-4,4,0.85,,,,,3,0,3,0,0,4,4,14,,,,,,,,,,,,,,,,,,,,,,,820.6744833000121,None,820.6744833000121,None,820.1742179000139,None,f,0.33052740000130143,820.6744833000121,None,,,,,,,,,,,,,n,001,2021_Jul_07_1437,toilet,2021.1.3,99.89451140095132,
180,180,4,-4,1.03,,,,,3,0,3,0,0,5,5,39,,,,,,,,,,,,,,,,,,,,,,,822.0053844000067,None,822.0053844000067,None,821.5050405000075,None,f,0.47170129998994526,822.0053844000067,None,,,,,,,,,,,,,n,001,2021_Jul_07_1437,toilet,2021.1.3,99.89451140095132,
0,0,-4,4,0.94,,,,,3,0,3,0,0,6,6,1,,,,,,,,,,,,,,,,,,,,,,,823.4763894000062,None,823.4763894000062,None,822.9760509000043,None,f,0.6007637000002433,823.4763894000062,None,,,,,,,,,,,,,n,001,2021_Jul_07_1437,toilet,2021.1.3,99.89451140095132,
180,0,4,-4,0.94,,,,,3,0,3,0,0,7,7,50,,,,,,,,,,,,,,,,,,,,,,,825.0874783000036,None,825.0874783000036,None,824.5871542000095,None,j,0.5416124999901513,825.0874783000036,None,,,,,,,,,,,,,n,001,2021_Jul_07_1437,toilet,2021.1.3,99.89451140095132,
180,180,-4,4,0.94,,,,,3,0,3,0,0,8,8,29,,,,,,,,,,,,,,,,,,,,,,,826.628601000004,None,826.628601000004,None,826.1281796000112,None,f,0.376533600006951,826.628601000004,None,,,,,,,,,,,,,n,001,2021_Jul_07_1437,toilet,2021.1.3,99.89451140095132,
180,180,4,-4,1.15,,,,,3,0,3,0,0,9,9,41,,,,,,,,,,,,,,,,,,,,,,,828.019497900008,None,828.019497900008,None,827.5191235000093,None,f,0.39358429999265354,828.019497900008,None,,,,,,,,,,,,,n,001,2021_Jul_07_1437,toilet,2021.1.3,99.89451140095132,
0,180,-4,4,1.03,,,,,3,0,3,0,0,10,10,18,,,,,,,,,,,,,,,,,,,,,,,829.4204205999995,None,829.4204205999995,None,828.9200780000101,None,j,0.5767042999941623,829.4204205999995,None,,,,,,,,,,,,,n,001,2021_Jul_07_1437,toilet,2021.1.3,99.89451140095132,
180,0,-4,4,1.0,,,,,3,0,3,0,0,11,11,45,,,,,,,,,,,,,,,,,,,,,,,831.0215053000138,None,831.0215053000138,None,830.5211704000103,None,f,0.46356920000107493,831.0215053000138,None,,,,,,,,,,,,,n,001,2021_Jul_07_1437,toilet,2021.1.3,99.89451140095132,
0,0,4,-4,1.0,,,,,3,0,3,0,0,12,12,10,,,,,,,,,,,,,,,,,,,,,,,832.5025101000065,None,832.5025101000065,None,832.0021734000038,None,j,0.5504698000004282,832.5025101000065,None,,,,,,,,,,,,,n,001,2021_Jul_07_1437,toilet,2021.1.3,99.89451140095132,
180,180,4,-4,0.85,,,,,3,0,3,0,0,13,13,35,,,,,,,,,,,,,,,,,,,,,,,834.063659300009,None,834.063659300009,None,833.5632306000043,None,j,0.41338089999044314,834.063659300009,None,,,,,,,,,,,,,n,001,2021_Jul_07_1437,toilet,2021.1.3,99.89451140095132,
180,0,4,-4,1.06,,,,,3,0,3,0,0,14,14,54,,,,,,,,,,,,,,,,,,,,,,,835.4845660000137,None,835.4845660000137,None,834.9842812000134,None,f,0.7524094999971567,835.4845660000137,None,,,,,,,,,,,,,n,001,2021_Jul_07_1437,toilet,2021.1.3,99.89451140095132,
180,0,4,-4,1.15,,,,,3,0,3,0,0,15,15,55,,,,,,,,,,,,,,,,,,,,,,,837.235722700003,None,837.235722700003,None,836.7353813000082,None,f,0.4091608000017004,837.235722700003,None,,,,,,,,,,,,,n,001,2021_Jul_07_1437,toilet,2021.1.3,99.89451140095132,
0,0,4,-4,0.94,,,,,3,0,3,0,0,16,16,8,,,,,,,,,,,,,,,,,,,,,,,838.6466734999995,None,838.6466734999995,None,838.1463122000132,None,j,0.4063505999947665,838.6466734999995,None,,,,,,,,,,,,,n,001,2021_Jul_07_1437,toilet,2021.1.3,99.89451140095132,
0,180,-4,4,1.15,,,,,3,0,3,0,0,17,17,20,,,,,,,,,,,,,,,,,,,,,,,840.0676365000108,None,840.0676365000108,None,839.5673020000104,None,j,0.4573120999993989,840.0676365000108,None,,,,,,,,,,,,,n,001,2021_Jul_07_1437,toilet,2021.1.3,99.89451140095132,
0,180,-4,4,1.06,,,,,3,0,3,0,0,18,18,19,,,,,,,,,,,,,,,,,,,,,,,841.5286701000005,None,841.5286701000005,None,841.0283735000121,None,j,0.37238230000366457,841.5286701000005,None,,,,,,,,,,,,,n,001,2021_Jul_07_1437,toilet,2021.1.3,99.89451140095132,
180,180,4,-4,1.0,,,,,3,0,3,0,0,19,19,38,,,,,,,,,,,,,,,,,,,,,,,842.9195734000095,None,842.9195734000095,None,842.4193306000088,None,f,0.3093076000077417,842.9195734000095,None,,,,,,,,,,,,,n,001,2021_Jul_07_1437,toilet,2021.1.3,99.89451140095132,
180,0,4,-4,1.03,,,,,3,0,3,0,0,20,20,53,,,,,,,,,,,,,,,,,,,,,,,844.2304634000029,None,844.2304634000029,None,843.7301303000131,None,f,0.3744758999964688,844.2304634000029,None,,,,,,,,,,,,,n,001,2021_Jul_07_1437,toilet,2021.1.3,99.89451140095132,
0,0,4,-4,0.97,,,,,3,0,3,0,0,21,21,9,,,,,,,,,,,,,,,,,,,,,,,845.6114020000095,None,845.6114020000095,None,845.1110672000068,None,j,0.38563689999864437,845.6114020000095,None,,,,,,,,,,,,,n,001,2021_Jul_07_1437,toilet,2021.1.3,99.89451140095132,
180,0,-4,4,1.15,,,,,3,0,3,0,0,22,22,48,,,,,,,,,,,,,,,,,,,,,,,847.0223753000028,None,847.0223753000028,None,846.5220265000098,None,j,0.3507568000059109,847.0223753000028,None,,,,,,,,,,,,,n,001,2021_Jul_07_1437,toilet,2021.1.3,99.89451140095132,
0,180,-4,4,0.97,,,,,3,0,3,0,0,23,23,16,,,,,,,,,,,,,,,,,,,,,,,848.3833749000041,None,848.3833749000041,None,847.8829305000108,None,f,0.5895595000038156,848.3833749000041,None,,,,,,,,,,,,,n,001,2021_Jul_07_1437,toilet,2021.1.3,99.89451140095132,
180,0,4,-4,1.0,,,,,3,0,3,0,0,24,24,52,,,,,,,,,,,,,,,,,,,,,,,849.9743713000062,None,849.9743713000062,None,849.474099900006,None,f,0.4705892999918433,849.9743713000062,None,,,,,,,,,,,,,n,001,2021_Jul_07_1437,toilet,2021.1.3,99.89451140095132,
0,180,4,-4,0.94,,,,,3,0,3,0,0,25,25,22,,,,,,,,,,,,,,,,,,,,,,,851.4453659000137,None,851.4453659000137,None,850.9450217000121,None,j,0.3754981999954907,851.4453659000137,None,,,,,,,,,,,,,n,001,2021_Jul_07_1437,toilet,2021.1.3,99.89451140095132,
0,180,4,-4,1.15,,,,,3,0,3,0,0,26,26,27,,,,,,,,,,,,,,,,,,,,,,,852.8263038000005,None,852.8263038000005,None,852.3259572000097,None,f,0.3867836999997962,852.8263038000005,None,,,,,,,,,,,,,n,001,2021_Jul_07_1437,toilet,2021.1.3,99.89451140095132,
180,0,4,-4,0.97,,,,,3,0,3,0,0,27,27,51,,,,,,,,,,,,,,,,,,,,,,,854.2272503000131,None,854.2272503000131,None,853.726908800003,None,j,0.361698200009414,854.2272503000131,None,,,,,,,,,,,,,n,001,2021_Jul_07_1437,toilet,2021.1.3,99.89451140095132,
0,0,-4,4,0.85,,,,,3,0,3,0,0,28,28,0,,,,,,,,,,,,,,,,,,,,,,,855.5982537000091,None,855.5982537000091,None,855.0978412000113,None,f,0.4626834999944549,855.5982537000091,None,,,,,,,,,,,,,n,001,2021_Jul_07_1437,toilet,2021.1.3,99.89451140095132,
180,180,-4,4,0.85,,,,,3,0,3,0,0,29,29,28,,,,,,,,,,,,,,,,,,,,,,,857.0692553000117,None,857.0692553000117,None,856.5689257000049,None,f,0.36763899998913985,857.0692553000117,None,,,,,,,,,,,,,n,001,2021_Jul_07_1437,toilet,2021.1.3,99.89451140095132,
0,0,-4,4,1.06,,,,,3,0,3,0,0,30,30,5,,,,,,,,,,,,,,,,,,,,,,,858.4501097000029,None,858.4501097000029,None,857.9497733000026,None,j,0.42675849999068305,858.4501097000029,None,,,,,,,,,,,,,n,001,2021_Jul_07_1437,toilet,2021.1.3,99.89451140095132,
0,0,-4,4,1.0,,,,,3,0,3,0,0,31,31,3,,,,,,,,,,,,,,,,,,,,,,,859.8810850000009,None,859.8810850000009,None,859.3807484000135,None,f,0.5318864000000758,859.8810850000009,None,,,,,,,,,,,,,n,001,2021_Jul_07_1437,toilet,2021.1.3,99.89451140095132,
180,180,4,-4,1.06,,,,,3,0,3,0,0,32,32,40,,,,,,,,,,,,,,,,,,,,,,,861.4221271000133,None,861.4221271000133,None,860.9217951000028,None,f,0.6388123000069754,861.4221271000133,None,,,,,,,,,,,,,n,001,2021_Jul_07_1437,toilet,2021.1.3,99.89451140095132,
180,180,-4,4,0.97,,,,,3,0,3,0,0,33,33,30,,,,,,,,,,,,,,,,,,,,,,,863.0733395999996,None,863.0733395999996,None,862.5729110000102,None,f,0.4596172000019578,863.0733395999996,None,,,,,,,,,,,,,n,001,2021_Jul_07_1437,toilet,2021.1.3,99.89451140095132,
0,0,-4,4,1.15,,,,,3,0,3,0,0,34,34,6,,,,,,,,,,,,,,,,,,,,,,,864.5443213000108,None,864.5443213000108,None,864.0439971000014,None,j,0.44478029999299906,864.5443213000108,None,,,,,,,,,,,,,n,001,2021_Jul_07_1437,toilet,2021.1.3,99.89451140095132,
0,180,4,-4,1.06,,,,,3,0,3,0,0,35,35,26,,,,,,,,,,,,,,,,,,,,,,,866.0052364000003,None,866.0052364000003,None,865.5048976000107,None,f,0.4717009000014514,866.0052364000003,None,,,,,,,,,,,,,n,001,2021_Jul_07_1437,toilet,2021.1.3,99.89451140095132,
180,180,-4,4,1.03,,,,,3,0,3,0,0,36,36,32,,,,,,,,,,,,,,,,,,,,,,,867.476238400006,None,867.476238400006,None,866.9758994000003,None,j,0.9368433999916306,867.476238400006,None,,,,,,,,,,,,,n,001,2021_Jul_07_1437,toilet,2021.1.3,99.89451140095132,
180,0,-4,4,0.94,,,,,3,0,3,0,0,37,37,43,,,,,,,,,,,,,,,,,,,,,,,869.4375674000039,None,869.4375674000039,None,868.9372329000034,None,f,0.44741599999542814,869.4375674000039,None,,,,,,,,,,,,,n,001,2021_Jul_07_1437,toilet,2021.1.3,99.89451140095132,
0,180,-4,4,1.0,,,,,3,0,3,0,0,38,38,17,,,,,,,,,,,,,,,,,,,,,,,870.8886327000073,None,870.8886327000073,None,870.3882927000086,None,j,0.8524253999930806,870.8886327000073,None,,,,,,,,,,,,,n,001,2021_Jul_07_1437,toilet,2021.1.3,99.89451140095132,
180,180,-4,4,1.0,,,,,3,0,3,0,0,39,39,31,,,,,,,,,,,,,,,,,,,,,,,872.7498148000013,None,872.7498148000013,None,872.2495565999998,None,f,0.719052999993437,872.7498148000013,None,,,,,,,,,,,,,n,001,2021_Jul_07_1437,toilet,2021.1.3,99.89451140095132,
0,180,-4,4,0.94,,,,,3,0,3,0,0,40,40,15,,,,,,,,,,,,,,,,,,,,,,,874.4709813000081,None,874.4709813000081,None,873.9706433000101,None,f,0.45398919998842757,874.4709813000081,None,,,,,,,,,,,,,n,001,2021_Jul_07_1437,toilet,2021.1.3,99.89451140095132,
0,0,4,-4,1.06,,,,,3,0,3,0,0,41,41,12,,,,,,,,,,,,,,,,,,,,,,,875.941979500014,None,875.941979500014,None,875.4416372000123,None,f,0.43894530000397936,875.941979500014,None,,,,,,,,,,,,,n,001,2021_Jul_07_1437,toilet,2021.1.3,99.89451140095132,
0,0,4,-4,1.03,,,,,3,0,3,0,0,42,42,11,,,,,,,,,,,,,,,,,,,,,,,877.3929620000126,None,877.3929620000126,None,876.8926247000054,None,f,0.6519896999961929,877.3929620000126,None,,,,,,,,,,,,,n,001,2021_Jul_07_1437,toilet,2021.1.3,99.89451140095132,
0,180,4,-4,0.85,,,,,3,0,3,0,0,43,43,21,,,,,,,,,,,,,,,,,,,,,,,879.0541674000124,None,879.0541674000124,None,878.553797600005,None,j,0.43084970000199974,879.0541674000124,None,,,,,,,,,,,,,n,001,2021_Jul_07_1437,toilet,2021.1.3,99.89451140095132,
0,180,4,-4,0.97,,,,,3,0,3,0,0,44,44,23,,,,,,,,,,,,,,,,,,,,,,,880.4951037000137,None,880.4951037000137,None,879.9947272999998,None,j,0.5257477999984985,880.4951037000137,None,,,,,,,,,,,,,n,001,2021_Jul_07_1437,toilet,2021.1.3,99.89451140095132,
180,0,-4,4,0.97,,,,,3,0,3,0,0,45,45,44,,,,,,,,,,,,,,,,,,,,,,,882.0261074000009,None,882.0261074000009,None,881.5257696000044,None,f,0.38675429999420885,882.0261074000009,None,,,,,,,,,,,,,n,001,2021_Jul_07_1437,toilet,2021.1.3,99.89451140095132,
0,0,-4,4,1.03,,,,,3,0,3,0,0,46,46,4,,,,,,,,,,,,,,,,,,,,,,,883.4170598000055,None,883.4170598000055,None,882.9167097000027,None,f,0.49989669999922626,883.4170598000055,None,,,,,,,,,,,,,n,001,2021_Jul_07_1437,toilet,2021.1.3,99.89451140095132,
180,180,-4,4,1.06,,,,,3,0,3,0,0,47,47,33,,,,,,,,,,,,,,,,,,,,,,,884.9280855000106,None,884.9280855000106,None,884.427739900013,None,j,0.4607744999957504,884.9280855000106,None,,,,,,,,,,,,,n,001,2021_Jul_07_1437,toilet,2021.1.3,99.89451140095132,
180,0,-4,4,1.03,,,,,3,0,3,0,0,48,48,46,,,,,,,,,,,,,,,,,,,,,,,886.3891463000036,None,886.3891463000036,None,885.888823900008,None,f,0.6638268999959109,886.3891463000036,None,,,,,,,,,,,,,n,001,2021_Jul_07_1437,toilet,2021.1.3,99.89451140095132,
180,0,4,-4,0.85,,,,,3,0,3,0,0,49,49,49,,,,,,,,,,,,,,,,,,,,,,,888.0702073000139,None,888.0702073000139,None,887.5698718000058,None,j,0.39064759999746457,888.0702073000139,None,,,,,,,,,,,,,n,001,2021_Jul_07_1437,toilet,2021.1.3,99.89451140095132,
