ori_st,ori_pr,xpos_st,xpos_pr,size,trials_3.thisRepN,trials_3.thisTrialN,trials_3.thisN,trials_3.thisIndex,trials_2.thisRepN,trials_2.thisTrialN,trials_2.thisN,trials_2.thisIndex,trials.thisRepN,trials.thisTrialN,trials.thisN,trials.thisIndex,wel_pra.started,wel_pra.stopped,resp_wel.keys,resp_wel.rt,resp_wel.started,resp_wel.stopped,standard_pra.started,standard_pra.stopped,prove_pra.started,prove_pra.stopped,fixation.started,fixation.stopped,resp_pra.keys,resp_pra.rt,resp_pra.started,resp_pra.stopped,instr.started,instr.stopped,key_resp_2.keys,key_resp_2.rt,key_resp_2.started,key_resp_2.stopped,standard.started,standard.stopped,probe.started,probe.stopped,text.started,text.stopped,resp.keys,resp.rt,resp.started,resp.stopped,text_2.started,text_2.stopped,key_resp.keys,key_resp.rt,key_resp.started,key_resp.stopped,text_3.started,text_3.stopped,key_resp_3.keys,key_resp_3.rt,key_resp_3.started,key_resp_3.stopped,participant,session,date,expName,psychopyVersion,frameRate,
,,,,,,,,,,,,,,,,,9.912937400047667,None,space,63.31832369999029,9.912937400047667,None,,,,,,,,,,,,,,,,,,,,,,,,,,,,,,,,,,,,,,,g,001,2021_Jul_02_1456,toilet,2021.1.3,99.93963648857233,
0,0,-4,4,0.85,0,0,0,0,,,,,,,,,,,,,,,74.28030039998703,None,74.28030039998703,None,73.7799643999897,None,f,2.566726899938658,74.28030039998703,None,,,,,,,,,,,,,,,,,,,,,,,,,,,,,g,001,2021_Jul_02_1456,toilet,2021.1.3,99.93963648857233,
180,180,-4,4,0.85,0,1,1,8,,,,,,,,,,,,,,,77.86272770003416,None,77.86272770003416,None,77.36242290004157,None,f,0.6962134999921545,77.86272770003416,None,,,,,,,,,,,,,,,,,,,,,,,,,,,,,g,001,2021_Jul_02_1456,toilet,2021.1.3,99.93963648857233,
0,180,4,-4,0.85,0,2,2,5,,,,,,,,,,,,,,,79.5638767000055,None,79.5638767000055,None,79.0635387999937,None,j,0.531192300026305,79.5638767000055,None,,,,,,,,,,,,,,,,,,,,,,,,,,,,,g,001,2021_Jul_02_1456,toilet,2021.1.3,99.93963648857233,
180,180,-4,4,1.15,0,3,3,11,,,,,,,,,,,,,,,81.10492070007604,None,81.10492070007604,None,80.60458100005053,None,j,0.6061857000458986,81.10492070007604,None,,,,,,,,,,,,,,,,,,,,,,,,,,,,,g,001,2021_Jul_02_1456,toilet,2021.1.3,99.93963648857233,
180,0,-4,4,1.15,0,4,4,14,,,,,,,,,,,,,,,82.72605749999639,None,82.72605749999639,None,82.23568809998687,None,j,0.4889471000060439,82.72605749999639,None,,,,,,,,,,,,,,,,,,,,,,,,,,,,,g,001,2021_Jul_02_1456,toilet,2021.1.3,99.93963648857233,
0,180,-4,4,1.15,0,5,5,6,,,,,,,,,,,,,,,84.22707470005844,None,84.22707470005844,None,83.72679400001653,None,j,0.9399195000296459,84.22707470005844,None,,,,,,,,,,,,,,,,,,,,,,,,,,,,,g,001,2021_Jul_02_1456,toilet,2021.1.3,99.93963648857233,
180,0,-4,4,0.85,0,6,6,12,,,,,,,,,,,,,,,86.16835050005466,None,86.16835050005466,None,85.66801440005656,None,f,0.7905963000375777,86.16835050005466,None,,,,,,,,,,,,,,,,,,,,,,,,,,,,,g,001,2021_Jul_02_1456,toilet,2021.1.3,99.93963648857233,
0,180,-4,4,0.85,0,7,7,4,,,,,,,,,,,,,,,87.95957090007141,None,87.95957090007141,None,87.45923989999574,None,f,0.7755340000148863,87.95957090007141,None,,,,,,,,,,,,,,,,,,,,,,,,,,,,,g,001,2021_Jul_02_1456,toilet,2021.1.3,99.93963648857233,
0,0,4,-4,0.85,0,8,8,1,,,,,,,,,,,,,,,89.76078680006322,None,89.76078680006322,None,89.26044860004913,None,j,0.5103211000096053,89.76078680006322,None,,,,,,,,,,,,,,,,,,,,,,,,,,,,,g,001,2021_Jul_02_1456,toilet,2021.1.3,99.93963648857233,
0,0,4,-4,1.15,0,9,9,3,,,,,,,,,,,,,,,91.27190410008188,None,91.27190410008188,None,90.77154630003497,None,f,0.5030488000484183,91.27190410008188,None,,,,,,,,,,,,,,,,,,,,,,,,,,,,,g,001,2021_Jul_02_1456,toilet,2021.1.3,99.93963648857233,
0,180,4,-4,1.15,0,10,10,7,,,,,,,,,,,,,,,92.78283300006296,None,92.78283300006296,None,92.28249970008619,None,f,0.4641916999826208,92.78283300006296,None,,,,,,,,,,,,,,,,,,,,,,,,,,,,,g,001,2021_Jul_02_1456,toilet,2021.1.3,99.93963648857233,
180,180,-4,4,1.15,0,11,11,10,,,,,,,,,,,,,,,94.25382920005359,None,94.25382920005359,None,93.75349510007072,None,j,0.4492300000274554,94.25382920005359,None,,,,,,,,,,,,,,,,,,,,,,,,,,,,,g,001,2021_Jul_02_1456,toilet,2021.1.3,99.93963648857233,
180,0,-4,4,1.15,0,12,12,15,,,,,,,,,,,,,,,95.71482250001281,None,95.71482250001281,None,95.21447980008088,None,j,0.47627600003033876,95.71482250001281,None,,,,,,,,,,,,,,,,,,,,,,,,,,,,,g,001,2021_Jul_02_1456,toilet,2021.1.3,99.93963648857233,
180,180,-4,4,0.85,0,13,13,9,,,,,,,,,,,,,,,97.2158352000406,None,97.2158352000406,None,96.71549540001433,None,f,0.4952693999512121,97.2158352000406,None,,,,,,,,,,,,,,,,,,,,,,,,,,,,,g,001,2021_Jul_02_1456,toilet,2021.1.3,99.93963648857233,
180,0,-4,4,0.85,0,14,14,13,,,,,,,,,,,,,,,98.72694970003795,None,98.72694970003795,None,98.22652440005913,None,f,0.45610269997268915,98.72694970003795,None,,,,,,,,,,,,,,,,,,,,,,,,,,,,,g,001,2021_Jul_02_1456,toilet,2021.1.3,99.93963648857233,
0,0,-4,4,1.15,0,15,15,2,,,,,,,,,,,,,,,100.19785950006917,None,100.19785950006917,None,99.69751930003986,None,j,0.40907910000532866,100.19785950006917,None,,,,,,,,,,,,,,,,,,,,,,,,,,,,,g,001,2021_Jul_02_1456,toilet,2021.1.3,99.93963648857233,
0,180,4,-4,1.03,,,,,0,0,0,0,0,0,0,25,,,,,,,,,,,,,,,,,100.62814550008625,None,space,83.86694700003136,100.62814550008625,None,185.5156536999857,None,185.5156536999857,None,185.01531669998076,None,j,1.9072529999539256,185.5156536999857,None,,,,,,,,,,,,,g,001,2021_Jul_02_1456,toilet,2021.1.3,99.93963648857233,
180,180,-4,4,0.94,,,,,0,0,0,0,0,1,1,29,,,,,,,,,,,,,,,,,,,,,,,188.42762039997615,None,188.42762039997615,None,187.927300499985,None,f,1.0272090999642387,188.42762039997615,None,,,,,,,,,,,,,g,001,2021_Jul_02_1456,toilet,2021.1.3,99.93963648857233,
180,0,4,-4,0.97,,,,,0,0,0,0,0,2,2,51,,,,,,,,,,,,,,,,,,,,,,,190.459000700037,None,190.459000700037,None,189.95866060000844,None,j,0.9483033999567851,190.459000700037,None,,,,,,,,,,,,,g,001,2021_Jul_02_1456,toilet,2021.1.3,99.93963648857233,
0,180,4,-4,1.15,,,,,0,0,0,0,0,3,3,27,,,,,,,,,,,,,,,,,,,,,,,192.43033400003333,None,192.43033400003333,None,191.93002369999886,None,f,1.1367481999332085,192.43033400003333,None,,,,,,,,,,,,,g,001,2021_Jul_02_1456,toilet,2021.1.3,99.93963648857233,
180,0,4,-4,1.0,,,,,0,0,0,0,0,4,4,52,,,,,,,,,,,,,,,,,,,,,,,194.59180579998065,None,194.59180579998065,None,194.09153259999584,None,j,2.1270541000412777,194.59180579998065,None,,,,,,,,,,,,,g,001,2021_Jul_02_1456,toilet,2021.1.3,99.93963648857233,
180,0,-4,4,0.97,,,,,0,0,0,0,0,5,5,44,,,,,,,,,,,,,,,,,,,,,,,197.7239222000353,None,197.7239222000353,None,197.2235848000273,None,j,1.2029945999383926,197.7239222000353,None,,,,,,,,,,,,,g,001,2021_Jul_02_1456,toilet,2021.1.3,99.93963648857233,
180,0,4,-4,0.94,,,,,0,0,0,0,0,6,6,50,,,,,,,,,,,,,,,,,,,,,,,199.95543249999173,None,199.95543249999173,None,199.4550943999784,None,j,1.467512600007467,199.95543249999173,None,,,,,,,,,,,,,g,001,2021_Jul_02_1456,toilet,2021.1.3,99.93963648857233,
0,180,-4,4,1.0,,,,,0,0,0,0,0,7,7,17,,,,,,,,,,,,,,,,,,,,,,,202.43720699998084,None,202.43720699998084,None,201.93685250007547,None,j,2.329604000085965,202.43720699998084,None,,,,,,,,,,,,,g,001,2021_Jul_02_1456,toilet,2021.1.3,99.93963648857233,
0,180,-4,4,1.15,,,,,0,0,0,0,0,8,8,20,,,,,,,,,,,,,,,,,,,,,,,205.76937100000214,None,205.76937100000214,None,205.26903060008772,None,j,0.5015694999601692,205.76937100000214,None,,,,,,,,,,,,,g,001,2021_Jul_02_1456,toilet,2021.1.3,99.93963648857233,
0,180,-4,4,0.85,,,,,0,0,0,0,0,9,9,14,,,,,,,,,,,,,,,,,,,,,,,207.28039630001877,None,207.28039630001877,None,206.7800627000397,None,f,0.4944197000004351,207.28039630001877,None,,,,,,,,,,,,,g,001,2021_Jul_02_1456,toilet,2021.1.3,99.93963648857233,
0,180,4,-4,1.0,,,,,0,0,0,0,0,10,10,24,,,,,,,,,,,,,,,,,,,,,,,208.78149990004022,None,208.78149990004022,None,208.28116520005278,None,j,1.4572891999268904,208.78149990004022,None,,,,,,,,,,,,,g,001,2021_Jul_02_1456,toilet,2021.1.3,99.93963648857233,
0,180,4,-4,1.06,,,,,0,0,0,0,0,11,11,26,,,,,,,,,,,,,,,,,,,,,,,211.2430817000568,None,211.2430817000568,None,210.74274500005413,None,f,1.5881449000444263,211.2430817000568,None,,,,,,,,,,,,,g,001,2021_Jul_02_1456,toilet,2021.1.3,99.93963648857233,
180,180,4,-4,0.85,,,,,0,0,0,0,0,12,12,35,,,,,,,,,,,,,,,,,,,,,,,213.84487560007256,None,213.84487560007256,None,213.34450530004688,None,j,0.6020723000401631,213.84487560007256,None,,,,,,,,,,,,,g,001,2021_Jul_02_1456,toilet,2021.1.3,99.93963648857233,
180,0,-4,4,0.94,,,,,0,0,0,0,0,13,13,43,,,,,,,,,,,,,,,,,,,,,,,215.46593730000313,None,215.46593730000313,None,214.9656034000218,None,f,0.7569950999459252,215.46593730000313,None,,,,,,,,,,,,,g,001,2021_Jul_02_1456,toilet,2021.1.3,99.93963648857233,
180,180,-4,4,0.85,,,,,0,0,0,0,0,14,14,28,,,,,,,,,,,,,,,,,,,,,,,217.23713750008028,None,217.23713750008028,None,216.73687909997534,None,f,1.1136564000044018,217.23713750008028,None,,,,,,,,,,,,,g,001,2021_Jul_02_1456,toilet,2021.1.3,99.93963648857233,
0,0,4,-4,1.15,,,,,0,0,0,0,0,15,15,13,,,,,,,,,,,,,,,,,,,,,,,219.35857699997723,None,219.35857699997723,None,218.85823880007956,None,f,0.5602306000655517,219.35857699997723,None,,,,,,,,,,,,,g,001,2021_Jul_02_1456,toilet,2021.1.3,99.93963648857233,
180,0,4,-4,1.06,,,,,0,0,0,0,0,16,16,54,,,,,,,,,,,,,,,,,,,,,,,220.9196350000566,None,220.9196350000566,None,220.4192960000364,None,f,1.527164600091055,220.9196350000566,None,,,,,,,,,,,,,g,001,2021_Jul_02_1456,toilet,2021.1.3,99.93963648857233,
0,0,-4,4,0.97,,,,,0,0,0,0,0,17,17,2,,,,,,,,,,,,,,,,,,,,,,,223.4514296000125,None,223.4514296000125,None,222.95110840001144,None,j,0.6594663000432774,223.4514296000125,None,,,,,,,,,,,,,g,001,2021_Jul_02_1456,toilet,2021.1.3,99.93963648857233,
180,0,-4,4,1.15,,,,,0,0,0,0,0,18,18,48,,,,,,,,,,,,,,,,,,,,,,,225.12248480005655,None,225.12248480005655,None,224.62220490002073,None,j,0.5083618999924511,225.12248480005655,None,,,,,,,,,,,,,g,001,2021_Jul_02_1456,toilet,2021.1.3,99.93963648857233,
0,0,4,-4,1.03,,,,,0,0,0,0,0,19,19,11,,,,,,,,,,,,,,,,,,,,,,,226.63350190001074,None,226.63350190001074,None,226.13316680002026,None,f,0.5814211999531835,226.63350190001074,None,,,,,,,,,,,,,g,001,2021_Jul_02_1456,toilet,2021.1.3,99.93963648857233,
0,0,4,-4,1.0,,,,,0,0,0,0,0,20,20,10,,,,,,,,,,,,,,,,,,,,,,,228.22463950002566,None,228.22463950002566,None,227.72424060001504,None,j,1.3581549999071285,228.22463950002566,None,,,,,,,,,,,,,g,001,2021_Jul_02_1456,toilet,2021.1.3,99.93963648857233,
180,180,-4,4,1.06,,,,,0,0,0,0,0,21,21,33,,,,,,,,,,,,,,,,,,,,,,,230.58626570005435,None,230.58626570005435,None,230.08584399998654,None,j,0.48473759996704757,230.58626570005435,None,,,,,,,,,,,,,g,001,2021_Jul_02_1456,toilet,2021.1.3,99.93963648857233,
180,180,4,-4,1.06,,,,,0,0,0,0,0,22,22,40,,,,,,,,,,,,,,,,,,,,,,,232.08720880001783,None,232.08720880001783,None,231.5969497000333,None,f,0.567587900091894,232.08720880001783,None,,,,,,,,,,,,,g,001,2021_Jul_02_1456,toilet,2021.1.3,99.93963648857233,
0,0,-4,4,1.03,,,,,0,0,0,0,0,23,23,4,,,,,,,,,,,,,,,,,,,,,,,233.65826639998704,None,233.65826639998704,None,233.1579240000574,None,j,0.452532000024803,233.65826639998704,None,,,,,,,,,,,,,g,001,2021_Jul_02_1456,toilet,2021.1.3,99.93963648857233,
0,180,-4,4,1.03,,,,,0,0,0,0,0,24,24,18,,,,,,,,,,,,,,,,,,,,,,,235.1192519000033,None,235.1192519000033,None,234.61891229997855,None,j,0.7357229000190273,235.1192519000033,None,,,,,,,,,,,,,g,001,2021_Jul_02_1456,toilet,2021.1.3,99.93963648857233,
180,0,-4,4,1.0,,,,,0,0,0,0,0,25,25,45,,,,,,,,,,,,,,,,,,,,,,,236.8804498000536,None,236.8804498000536,None,236.38010950002354,None,j,0.9904051000485197,236.8804498000536,None,,,,,,,,,,,,,g,001,2021_Jul_02_1456,toilet,2021.1.3,99.93963648857233,
0,180,4,-4,0.97,,,,,0,0,0,0,0,26,26,23,,,,,,,,,,,,,,,,,,,,,,,238.88184400007594,None,238.88184400007594,None,238.38154600001872,None,j,0.55703819997143,238.88184400007594,None,,,,,,,,,,,,,g,001,2021_Jul_02_1456,toilet,2021.1.3,99.93963648857233,
0,0,-4,4,1.0,,,,,0,0,0,0,0,27,27,3,,,,,,,,,,,,,,,,,,,,,,,240.44285840005614,None,240.44285840005614,None,239.9425237000687,None,f,0.5959130000555888,240.44285840005614,None,,,,,,,,,,,,,g,001,2021_Jul_02_1456,toilet,2021.1.3,99.93963648857233,
180,180,4,-4,0.94,,,,,0,0,0,0,0,28,28,36,,,,,,,,,,,,,,,,,,,,,,,242.0439465000527,None,242.0439465000527,None,241.54361020005308,None,j,1.074991300003603,242.0439465000527,None,,,,,,,,,,,,,g,001,2021_Jul_02_1456,toilet,2021.1.3,99.93963648857233,
180,180,-4,4,1.15,,,,,0,0,0,0,0,29,29,34,,,,,,,,,,,,,,,,,,,,,,,244.1453698000405,None,244.1453698000405,None,243.64502579998225,None,j,0.6856569999363273,244.1453698000405,None,,,,,,,,,,,,,g,001,2021_Jul_02_1456,toilet,2021.1.3,99.93963648857233,
180,0,4,-4,0.85,,,,,0,0,0,0,0,30,30,49,,,,,,,,,,,,,,,,,,,,,,,245.85661800007802,None,245.85661800007802,None,245.35628150007688,None,j,0.6862880999688059,245.85661800007802,None,,,,,,,,,,,,,g,001,2021_Jul_02_1456,toilet,2021.1.3,99.93963648857233,
180,0,-4,4,1.06,,,,,0,0,0,0,0,31,31,47,,,,,,,,,,,,,,,,,,,,,,,247.55771159997676,None,247.55771159997676,None,247.05733780004084,None,j,1.3213372000027448,247.55771159997676,None,,,,,,,,,,,,,g,001,2021_Jul_02_1456,toilet,2021.1.3,99.93963648857233,
0,180,-4,4,0.94,,,,,0,0,0,0,0,32,32,15,,,,,,,,,,,,,,,,,,,,,,,249.87925780005753,None,249.87925780005753,None,249.37891570001375,None,f,0.6956609000917524,249.87925780005753,None,,,,,,,,,,,,,g,001,2021_Jul_02_1456,toilet,2021.1.3,99.93963648857233,
180,180,-4,4,1.0,,,,,0,0,0,0,0,33,33,31,,,,,,,,,,,,,,,,,,,,,,,251.5904117000755,None,251.5904117000755,None,251.0900735000614,None,f,1.3045337999938056,251.5904117000755,None,,,,,,,,,,,,,g,001,2021_Jul_02_1456,toilet,2021.1.3,99.93963648857233,
0,0,-4,4,0.85,,,,,0,0,0,0,0,34,34,0,,,,,,,,,,,,,,,,,,,,,,,253.9219944999786,None,253.9219944999786,None,253.4217379000038,None,f,0.6208298000274226,253.9219944999786,None,,,,,,,,,,,,,g,001,2021_Jul_02_1456,toilet,2021.1.3,99.93963648857233,
0,0,-4,4,1.15,,,,,0,0,0,0,0,35,35,6,,,,,,,,,,,,,,,,,,,,,,,255.5430883000372,None,255.5430883000372,None,255.04275100002997,None,j,0.6317346999421716,255.5430883000372,None,,,,,,,,,,,,,g,001,2021_Jul_02_1456,toilet,2021.1.3,99.93963648857233,
0,0,4,-4,0.97,,,,,0,0,0,0,0,36,36,9,,,,,,,,,,,,,,,,,,,,,,,257.174191600061,None,257.174191600061,None,256.6738576000789,None,j,0.9686989000765607,257.174191600061,None,,,,,,,,,,,,,g,001,2021_Jul_02_1456,toilet,2021.1.3,99.93963648857233,
0,180,4,-4,0.94,,,,,0,0,0,0,0,37,37,22,,,,,,,,,,,,,,,,,,,,,,,259.1555522000417,None,259.1555522000417,None,258.65519950003363,None,j,0.7152655000099912,259.1555522000417,None,,,,,,,,,,,,,g,001,2021_Jul_02_1456,toilet,2021.1.3,99.93963648857233,
180,0,-4,4,1.03,,,,,0,0,0,0,0,38,38,46,,,,,,,,,,,,,,,,,,,,,,,260.8867996999761,None,260.8867996999761,None,260.3864549000282,None,j,0.696106499992311,260.8867996999761,None,,,,,,,,,,,,,g,001,2021_Jul_02_1456,toilet,2021.1.3,99.93963648857233,
180,180,4,-4,1.15,,,,,0,0,0,0,0,39,39,41,,,,,,,,,,,,,,,,,,,,,,,262.59786880004685,None,262.59786880004685,None,262.09752599999774,None,f,0.6648814000654966,262.59786880004685,None,,,,,,,,,,,,,g,001,2021_Jul_02_1456,toilet,2021.1.3,99.93963648857233,
0,0,4,-4,0.85,,,,,0,0,0,0,0,40,40,7,,,,,,,,,,,,,,,,,,,,,,,264.2690036999993,None,264.2690036999993,None,263.76866340008564,None,j,0.5618429000023752,264.2690036999993,None,,,,,,,,,,,,,g,001,2021_Jul_02_1456,toilet,2021.1.3,99.93963648857233,
180,0,-4,4,0.85,,,,,0,0,0,0,0,41,41,42,,,,,,,,,,,,,,,,,,,,,,,265.8400688000256,None,265.8400688000256,None,265.3397225000663,None,f,0.8146575998980552,265.8400688000256,None,,,,,,,,,,,,,g,001,2021_Jul_02_1456,toilet,2021.1.3,99.93963648857233,
180,180,4,-4,0.97,,,,,0,0,0,0,0,42,42,37,,,,,,,,,,,,,,,,,,,,,,,267.66137840005103,None,267.66137840005103,None,267.1610561000416,None,j,0.8815412999829277,267.66137840005103,None,,,,,,,,,,,,,g,001,2021_Jul_02_1456,toilet,2021.1.3,99.93963648857233,
180,180,-4,4,1.03,,,,,0,0,0,0,0,43,43,32,,,,,,,,,,,,,,,,,,,,,,,269.55258000001777,None,269.55258000001777,None,269.05226000002585,None,j,0.7823169999755919,269.55258000001777,None,,,,,,,,,,,,,g,001,2021_Jul_02_1456,toilet,2021.1.3,99.93963648857233,
0,180,-4,4,1.06,,,,,0,0,0,0,0,44,44,19,,,,,,,,,,,,,,,,,,,,,,,271.34379409998655,None,271.34379409998655,None,270.8434535000706,None,j,1.1669551000231877,271.34379409998655,None,,,,,,,,,,,,,g,001,2021_Jul_02_1456,toilet,2021.1.3,99.93963648857233,
0,180,-4,4,0.97,,,,,0,0,0,0,0,45,45,16,,,,,,,,,,,,,,,,,,,,,,,273.51526600006036,None,273.51526600006036,None,273.01492530002724,None,f,1.0436980000231415,273.51526600006036,None,,,,,,,,,,,,,g,001,2021_Jul_02_1456,toilet,2021.1.3,99.93963648857233,
180,0,4,-4,1.15,,,,,0,0,0,0,0,46,46,55,,,,,,,,,,,,,,,,,,,,,,,275.5866963000735,None,275.5866963000735,None,275.08641270000953,None,f,0.6681405999697745,275.5866963000735,None,,,,,,,,,,,,,g,001,2021_Jul_02_1456,toilet,2021.1.3,99.93963648857233,
0,180,4,-4,0.85,,,,,0,0,0,0,0,47,47,21,,,,,,,,,,,,,,,,,,,,,,,277.26780780008994,None,277.26780780008994,None,276.76747920003254,None,j,0.666947599966079,277.26780780008994,None,,,,,,,,,,,,,g,001,2021_Jul_02_1456,toilet,2021.1.3,99.93963648857233,
180,180,-4,4,0.97,,,,,0,0,0,0,0,48,48,30,,,,,,,,,,,,,,,,,,,,,,,278.9389419000363,None,278.9389419000363,None,278.4385973000899,None,f,0.9479737998917699,278.9389419000363,None,,,,,,,,,,,,,g,001,2021_Jul_02_1456,toilet,2021.1.3,99.93963648857233,
0,0,4,-4,1.06,,,,,0,0,0,0,0,49,49,12,,,,,,,,,,,,,,,,,,,,,,,280.900262500043,None,280.900262500043,None,280.3999270000495,None,f,2.346661900053732,280.900262500043,None,,,,,,,,,,,,,g,001,2021_Jul_02_1456,toilet,2021.1.3,99.93963648857233,
0,0,-4,4,0.94,,,,,0,0,0,0,0,50,50,1,,,,,,,,,,,,,,,,,,,,,,,284.26254160003737,None,284.26254160003737,None,283.76222680008505,None,f,2.392287699971348,284.26254160003737,None,,,,,,,,,,,,,g,001,2021_Jul_02_1456,toilet,2021.1.3,99.93963648857233,
0,0,4,-4,0.94,,,,,0,0,0,0,0,51,51,8,,,,,,,,,,,,,,,,,,,,,,,287.6548432999989,None,287.6548432999989,None,287.16450820001774,None,j,0.6320889999624342,287.6548432999989,None,,,,,,,,,,,,,g,001,2021_Jul_02_1456,toilet,2021.1.3,99.93963648857233,
180,180,4,-4,1.03,,,,,0,0,0,0,0,52,52,39,,,,,,,,,,,,,,,,,,,,,,,289.29599160002545,None,289.29599160002545,None,288.7956169000827,None,f,2.3187705000163987,289.29599160002545,None,,,,,,,,,,,,,g,001,2021_Jul_02_1456,toilet,2021.1.3,99.93963648857233,
180,180,4,-4,1.0,,,,,0,0,0,0,0,53,53,38,,,,,,,,,,,,,,,,,,,,,,,292.6282129000174,None,292.6282129000174,None,292.1278758000117,None,j,0.8265144999604672,292.6282129000174,None,,,,,,,,,,,,,g,001,2021_Jul_02_1456,toilet,2021.1.3,99.93963648857233,
180,0,4,-4,1.03,,,,,0,0,0,0,0,54,54,53,,,,,,,,,,,,,,,,,,,,,,,294.4594498000806,None,294.4594498000806,None,293.959113500081,None,f,0.739408600027673,294.4594498000806,None,,,,,,,,,,,,,g,001,2021_Jul_02_1456,toilet,2021.1.3,99.93963648857233,
0,0,-4,4,1.06,,,,,0,0,0,0,0,55,55,5,,,,,,,,,,,,,,,,,,,,,,,296.210637900047,None,296.210637900047,None,295.71030330006033,None,j,0.47626660007517785,296.210637900047,None,,,,,,,,,,,,,g,001,2021_Jul_02_1456,toilet,2021.1.3,99.93963648857233,
0,180,4,-4,1.15,,,,,0,0,0,0,1,0,56,27,,,,,,,,,,,,,,,,,,,,,,,297.7017266000621,None,297.7017266000621,None,297.2013064000057,None,f,0.6490283999592066,297.7017266000621,None,,,,,,,,,,,,,g,001,2021_Jul_02_1456,toilet,2021.1.3,99.93963648857233,
180,0,4,-4,1.03,,,,,0,0,0,0,1,1,57,53,,,,,,,,,,,,,,,,,,,,,,,299.36278750002384,None,299.36278750002384,None,298.86243800004013,None,f,1.0359188999282196,299.36278750002384,None,,,,,,,,,,,,,g,001,2021_Jul_02_1456,toilet,2021.1.3,99.93963648857233,
180,180,4,-4,1.03,,,,,0,0,0,0,1,2,58,39,,,,,,,,,,,,,,,,,,,,,,,301.40415600000415,None,301.40415600000415,None,300.9038168999832,None,f,1.3467104999581352,301.40415600000415,None,,,,,,,,,,,,,g,001,2021_Jul_02_1456,toilet,2021.1.3,99.93963648857233,
180,0,-4,4,1.03,,,,,0,0,0,0,1,3,59,46,,,,,,,,,,,,,,,,,,,,,,,303.7658462000545,None,303.7658462000545,None,303.2654194000643,None,j,0.5368446999927983,303.7658462000545,None,,,,,,,,,,,,,g,001,2021_Jul_02_1456,toilet,2021.1.3,99.93963648857233,
0,0,-4,4,0.85,,,,,0,0,0,0,1,4,60,0,,,,,,,,,,,,,,,,,,,,,,,305.30688759998884,None,305.30688759998884,None,304.8065594000509,None,f,0.5638102000812069,305.30688759998884,None,,,,,,,,,,,,,g,001,2021_Jul_02_1456,toilet,2021.1.3,99.93963648857233,
0,180,-4,4,1.03,,,,,0,0,0,0,1,5,61,18,,,,,,,,,,,,,,,,,,,,,,,306.87786370003596,None,306.87786370003596,None,306.3775214999914,None,j,0.5448531999718398,306.87786370003596,None,,,,,,,,,,,,,g,001,2021_Jul_02_1456,toilet,2021.1.3,99.93963648857233,
0,0,-4,4,1.06,,,,,0,0,0,0,1,6,62,5,,,,,,,,,,,,,,,,,,,,,,,308.4289103000192,None,308.4289103000192,None,307.928581800079,None,j,0.5938465999206528,308.4289103000192,None,,,,,,,,,,,,,g,001,2021_Jul_02_1456,toilet,2021.1.3,99.93963648857233,
0,0,4,-4,1.0,,,,,0,0,0,0,1,7,63,10,,,,,,,,,,,,,,,,,,,,,,,310.0299977000104,None,310.0299977000104,None,309.5296574999811,None,j,1.056868699961342,310.0299977000104,None,,,,,,,,,,,,,g,001,2021_Jul_02_1456,toilet,2021.1.3,99.93963648857233,
180,0,-4,4,0.97,,,,,0,0,0,0,1,8,64,44,,,,,,,,,,,,,,,,,,,,,,,312.1014753000345,None,312.1014753000345,None,311.6011548000388,None,j,1.8492569000227377,312.1014753000345,None,,,,,,,,,,,,,g,001,2021_Jul_02_1456,toilet,2021.1.3,99.93963648857233,
0,0,-4,4,0.97,,,,,0,0,0,0,1,9,65,2,,,,,,,,,,,,,,,,,,,,,,,314.95333390007727,None,314.95333390007727,None,314.45299140003044,None,j,2.0374075999716297,314.95333390007727,None,,,,,,,,,,,,,g,001,2021_Jul_02_1456,toilet,2021.1.3,99.93963648857233,
0,180,-4,4,1.0,,,,,0,0,0,0,1,10,66,17,,,,,,,,,,,,,,,,,,,,,,,317.99539609998465,None,317.99539609998465,None,317.49505510006566,None,f,2.4034710000269115,317.99539609998465,None,,,,,,,,,,,,,g,001,2021_Jul_02_1456,toilet,2021.1.3,99.93963648857233,
180,0,4,-4,1.06,,,,,0,0,0,0,1,11,67,54,,,,,,,,,,,,,,,,,,,,,,,321.41771280008834,None,321.41771280008834,None,320.9173740000697,None,f,0.9009597999975085,321.41771280008834,None,,,,,,,,,,,,,g,001,2021_Jul_02_1456,toilet,2021.1.3,99.93963648857233,
180,180,-4,4,0.97,,,,,0,0,0,0,1,12,68,30,,,,,,,,,,,,,,,,,,,,,,,323.3189995000139,None,323.3189995000139,None,322.81866089999676,None,j,0.663867799914442,323.3189995000139,None,,,,,,,,,,,,,g,001,2021_Jul_02_1456,toilet,2021.1.3,99.93963648857233,
0,180,4,-4,1.06,,,,,0,0,0,0,1,13,69,26,,,,,,,,,,,,,,,,,,,,,,,325.00013850000687,None,325.00013850000687,None,324.49980190000497,None,f,1.5427253999514505,325.00013850000687,None,,,,,,,,,,,,,g,001,2021_Jul_02_1456,toilet,2021.1.3,99.93963648857233,
0,180,4,-4,0.97,,,,,0,0,0,0,1,14,70,23,,,,,,,,,,,,,,,,,,,,,,,327.5519643999869,None,327.5519643999869,None,327.051611199975,None,j,0.7188046000665054,327.5519643999869,None,,,,,,,,,,,,,g,001,2021_Jul_02_1456,toilet,2021.1.3,99.93963648857233,
180,0,4,-4,1.0,,,,,0,0,0,0,1,15,71,52,,,,,,,,,,,,,,,,,,,,,,,329.27306170004886,None,329.27306170004886,None,328.7726929000346,None,f,1.1257834000280127,329.27306170004886,None,,,,,,,,,,,,,g,001,2021_Jul_02_1456,toilet,2021.1.3,99.93963648857233,
0,0,4,-4,1.15,,,,,0,0,0,0,1,16,72,13,,,,,,,,,,,,,,,,,,,,,,,331.424495400046,None,331.424495400046,None,330.924151299987,None,f,0.606323300045915,331.424495400046,None,,,,,,,,,,,,,g,001,2021_Jul_02_1456,toilet,2021.1.3,99.93963648857233,
0,0,4,-4,1.06,,,,,0,0,0,0,1,17,73,12,,,,,,,,,,,,,,,,,,,,,,,333.05559630005155,None,333.05559630005155,None,332.555256200023,None,f,0.623171400045976,333.05559630005155,None,,,,,,,,,,,,,g,001,2021_Jul_02_1456,toilet,2021.1.3,99.93963648857233,
0,180,-4,4,1.15,,,,,0,0,0,0,1,18,74,20,,,,,,,,,,,,,,,,,,,,,,,334.6867930000881,None,334.6867930000881,None,334.18643940007314,None,j,0.672126300050877,334.6867930000881,None,,,,,,,,,,,,,g,001,2021_Jul_02_1456,toilet,2021.1.3,99.93963648857233,
180,180,-4,4,1.0,,,,,0,0,0,0,1,19,75,31,,,,,,,,,,,,,,,,,,,,,,,336.3678408000851,None,336.3678408000851,None,335.86750230006874,None,j,1.3909741999814287,336.3678408000851,None,,,,,,,,,,,,,g,001,2021_Jul_02_1456,toilet,2021.1.3,99.93963648857233,
0,0,-4,4,0.94,,,,,0,0,0,0,1,20,76,1,,,,,,,,,,,,,,,,,,,,,,,338.76946750003844,None,338.76946750003844,None,338.26912750001065,None,f,0.7813165999250486,338.76946750003844,None,,,,,,,,,,,,,g,001,2021_Jul_02_1456,toilet,2021.1.3,99.93963648857233,
180,180,-4,4,1.03,,,,,0,0,0,0,1,21,77,32,,,,,,,,,,,,,,,,,,,,,,,340.56069780001417,None,340.56069780001417,None,340.0603413999779,None,j,0.8301244999747723,340.56069780001417,None,,,,,,,,,,,,,g,001,2021_Jul_02_1456,toilet,2021.1.3,99.93963648857233,
180,180,4,-4,0.94,,,,,0,0,0,0,1,22,78,36,,,,,,,,,,,,,,,,,,,,,,,342.40192340000067,None,342.40192340000067,None,341.9016791000031,None,j,0.5887394000310451,342.40192340000067,None,,,,,,,,,,,,,g,001,2021_Jul_02_1456,toilet,2021.1.3,99.93963648857233,
0,180,4,-4,0.85,,,,,0,0,0,0,1,23,79,21,,,,,,,,,,,,,,,,,,,,,,,343.9930067000678,None,343.9930067000678,None,343.492677000002,None,j,0.6456609000451863,343.9930067000678,None,,,,,,,,,,,,,g,001,2021_Jul_02_1456,toilet,2021.1.3,99.93963648857233,
0,180,4,-4,1.0,,,,,0,0,0,0,1,24,80,24,,,,,,,,,,,,,,,,,,,,,,,345.6441492000595,None,345.6441492000595,None,345.1437862999737,None,j,0.6745347999967635,345.6441492000595,None,,,,,,,,,,,,,g,001,2021_Jul_02_1456,toilet,2021.1.3,99.93963648857233,
0,180,-4,4,0.97,,,,,0,0,0,0,1,25,81,16,,,,,,,,,,,,,,,,,,,,,,,347.3252601000713,None,347.3252601000713,None,346.82492440007627,None,f,0.913433299981989,347.3252601000713,None,,,,,,,,,,,,,g,001,2021_Jul_02_1456,toilet,2021.1.3,99.93963648857233,
0,180,-4,4,0.85,,,,,0,0,0,0,1,26,82,14,,,,,,,,,,,,,,,,,,,,,,,349.2466469000792,None,349.2466469000792,None,348.74628980003763,None,f,0.608085900079459,349.2466469000792,None,,,,,,,,,,,,,g,001,2021_Jul_02_1456,toilet,2021.1.3,99.93963648857233,
180,180,4,-4,1.0,,,,,0,0,0,0,1,27,83,38,,,,,,,,,,,,,,,,,,,,,,,350.86767230008263,None,350.86767230008263,None,350.3673235999886,None,j,0.9389705000212416,350.86767230008263,None,,,,,,,,,,,,,g,001,2021_Jul_02_1456,toilet,2021.1.3,99.93963648857233,
0,0,4,-4,0.97,,,,,0,0,0,0,1,28,84,9,,,,,,,,,,,,,,,,,,,,,,,352.80897970008664,None,352.80897970008664,None,352.3086446999805,None,j,1.5097646999638528,352.80897970008664,None,,,,,,,,,,,,,g,001,2021_Jul_02_1456,toilet,2021.1.3,99.93963648857233,
0,0,4,-4,1.03,,,,,0,0,0,0,1,29,85,11,,,,,,,,,,,,,,,,,,,,,,,355.3306833000388,None,355.3306833000388,None,354.83034320001025,None,f,1.7241529999300838,355.3306833000388,None,,,,,,,,,,,,,g,001,2021_Jul_02_1456,toilet,2021.1.3,99.93963648857233,
0,180,4,-4,0.94,,,,,0,0,0,0,1,30,86,22,,,,,,,,,,,,,,,,,,,,,,,358.0725419999799,None,358.0725419999799,None,357.5722079999978,None,j,1.5742521999636665,358.0725419999799,None,,,,,,,,,,,,,g,001,2021_Jul_02_1456,toilet,2021.1.3,99.93963648857233,
180,180,-4,4,1.06,,,,,0,0,0,0,1,31,87,33,,,,,,,,,,,,,,,,,,,,,,,360.6743036999833,None,360.6743036999833,None,360.17396639997605,None,j,0.7324565999442711,360.6743036999833,None,,,,,,,,,,,,,g,001,2021_Jul_02_1456,toilet,2021.1.3,99.93963648857233,
180,0,4,-4,0.94,,,,,0,0,0,0,1,32,88,50,,,,,,,,,,,,,,,,,,,,,,,362.41548070008866,None,362.41548070008866,None,361.9151477999985,None,j,1.85521740000695,362.41548070008866,None,,,,,,,,,,,,,g,001,2021_Jul_02_1456,toilet,2021.1.3,99.93963648857233,
180,180,-4,4,0.85,,,,,0,0,0,0,1,33,89,28,,,,,,,,,,,,,,,,,,,,,,,365.2774193000514,None,365.2774193000514,None,364.7771769000683,None,f,0.6092514999909326,365.2774193000514,None,,,,,,,,,,,,,g,001,2021_Jul_02_1456,toilet,2021.1.3,99.93963648857233,
180,180,4,-4,1.15,,,,,0,0,0,0,1,34,90,41,,,,,,,,,,,,,,,,,,,,,,,366.8885166000109,None,366.8885166000109,None,366.3881798000075,None,f,0.582249499973841,366.8885166000109,None,,,,,,,,,,,,,g,001,2021_Jul_02_1456,toilet,2021.1.3,99.93963648857233,
180,0,-4,4,0.94,,,,,0,0,0,0,1,35,91,43,,,,,,,,,,,,,,,,,,,,,,,368.4795917000156,None,368.4795917000156,None,367.9792526999954,None,f,1.4870651999954134,368.4795917000156,None,,,,,,,,,,,,,g,001,2021_Jul_02_1456,toilet,2021.1.3,99.93963648857233,
180,0,4,-4,0.97,,,,,0,0,0,0,1,36,92,51,,,,,,,,,,,,,,,,,,,,,,,370.9713741000742,None,370.9713741000742,None,370.4710265999893,None,j,1.843416899908334,370.9713741000742,None,,,,,,,,,,,,,g,001,2021_Jul_02_1456,toilet,2021.1.3,99.93963648857233,
180,180,-4,4,1.15,,,,,0,0,0,0,1,37,93,34,,,,,,,,,,,,,,,,,,,,,,,373.8232168999966,None,373.8232168999966,None,373.3228723000502,None,j,0.479557599988766,373.8232168999966,None,,,,,,,,,,,,,g,001,2021_Jul_02_1456,toilet,2021.1.3,99.93963648857233,
0,180,-4,4,0.94,,,,,0,0,0,0,1,38,94,15,,,,,,,,,,,,,,,,,,,,,,,375.3142188000493,None,375.3142188000493,None,374.8138798000291,None,f,0.5245209001004696,375.3142188000493,None,,,,,,,,,,,,,g,001,2021_Jul_02_1456,toilet,2021.1.3,99.93963648857233,
180,0,-4,4,1.0,,,,,0,0,0,0,1,39,95,45,,,,,,,,,,,,,,,,,,,,,,,376.855261699995,None,376.855261699995,None,376.3549232999794,None,j,0.9994583999505267,376.855261699995,None,,,,,,,,,,,,,g,001,2021_Jul_02_1456,toilet,2021.1.3,99.93963648857233,
0,0,-4,4,1.15,,,,,0,0,0,0,1,40,96,6,,,,,,,,,,,,,,,,,,,,,,,378.8667084000772,None,378.8667084000772,None,378.36638560006395,None,j,0.4760529000777751,378.8667084000772,None,,,,,,,,,,,,,g,001,2021_Jul_02_1456,toilet,2021.1.3,99.93963648857233,
0,0,4,-4,0.85,,,,,0,0,0,0,1,41,97,7,,,,,,,,,,,,,,,,,,,,,,,380.3576385000488,None,380.3576385000488,None,379.8572987000225,None,j,0.5370574000990018,380.3576385000488,None,,,,,,,,,,,,,g,001,2021_Jul_02_1456,toilet,2021.1.3,99.93963648857233,
0,0,-4,4,1.0,,,,,0,0,0,0,1,42,98,3,,,,,,,,,,,,,,,,,,,,,,,381.8987090000883,None,381.8987090000883,None,381.39834170008544,None,f,0.5481434999965131,381.8987090000883,None,,,,,,,,,,,,,g,001,2021_Jul_02_1456,toilet,2021.1.3,99.93963648857233,
180,0,-4,4,0.85,,,,,0,0,0,0,1,43,99,42,,,,,,,,,,,,,,,,,,,,,,,383.4597368000541,None,383.4597368000541,None,382.95939870004077,None,f,0.6510127000510693,383.4597368000541,None,,,,,,,,,,,,,g,001,2021_Jul_02_1456,toilet,2021.1.3,99.93963648857233,
180,180,4,-4,0.85,,,,,0,0,0,0,1,44,100,35,,,,,,,,,,,,,,,,,,,,,,,385.1209474999923,None,385.1209474999923,None,384.62052490003407,None,j,0.4938468000618741,385.1209474999923,None,,,,,,,,,,,,,g,001,2021_Jul_02_1456,toilet,2021.1.3,99.93963648857233,
0,180,4,-4,1.03,,,,,0,0,0,0,1,45,101,25,,,,,,,,,,,,,,,,,,,,,,,386.6319703999907,None,386.6319703999907,None,386.1316275000572,None,f,2.6627693000482395,386.6319703999907,None,,,,,,,,,,,,,g,001,2021_Jul_02_1456,toilet,2021.1.3,99.93963648857233,
180,0,-4,4,1.15,,,,,0,0,0,0,1,46,102,48,,,,,,,,,,,,,,,,,,,,,,,390.30437820008956,None,390.30437820008956,None,389.8040319000138,None,j,0.5583805000642315,390.30437820008956,None,,,,,,,,,,,,,g,001,2021_Jul_02_1456,toilet,2021.1.3,99.93963648857233,
180,180,-4,4,0.94,,,,,0,0,0,0,1,47,103,29,,,,,,,,,,,,,,,,,,,,,,,391.8654443999985,None,391.8654443999985,None,391.3650904999813,None,f,0.5812366999452934,391.8654443999985,None,,,,,,,,,,,,,g,001,2021_Jul_02_1456,toilet,2021.1.3,99.93963648857233,
180,0,4,-4,0.85,,,,,0,0,0,0,1,48,104,49,,,,,,,,,,,,,,,,,,,,,,,393.44660030002706,None,393.44660030002706,None,392.94623970007524,None,j,0.504008200019598,393.44660030002706,None,,,,,,,,,,,,,g,001,2021_Jul_02_1456,toilet,2021.1.3,99.93963648857233,
180,180,4,-4,0.97,,,,,0,0,0,0,1,49,105,37,,,,,,,,,,,,,,,,,,,,,,,394.95752070005983,None,394.95752070005983,None,394.45718660007697,None,j,0.6890932000242174,394.95752070005983,None,,,,,,,,,,,,,g,001,2021_Jul_02_1456,toilet,2021.1.3,99.93963648857233,
180,0,-4,4,1.06,,,,,0,0,0,0,1,50,106,47,,,,,,,,,,,,,,,,,,,,,,,396.6486698000226,None,396.6486698000226,None,396.1483303999994,None,j,0.8701003999449313,396.6486698000226,None,,,,,,,,,,,,,g,001,2021_Jul_02_1456,toilet,2021.1.3,99.93963648857233,
0,180,-4,4,1.06,,,,,0,0,0,0,1,51,107,19,,,,,,,,,,,,,,,,,,,,,,,398.5299419000512,None,398.5299419000512,None,398.0296048000455,None,j,2.8607945000985637,398.5299419000512,None,,,,,,,,,,,,,g,001,2021_Jul_02_1456,toilet,2021.1.3,99.93963648857233,
0,0,4,-4,0.94,,,,,0,0,0,0,1,52,108,8,,,,,,,,,,,,,,,,,,,,,,,402.402567800018,None,402.402567800018,None,401.9022264999803,None,j,0.7001614000182599,402.402567800018,None,,,,,,,,,,,,,g,001,2021_Jul_02_1456,toilet,2021.1.3,99.93963648857233,
180,180,4,-4,1.06,,,,,0,0,0,0,1,53,109,40,,,,,,,,,,,,,,,,,,,,,,,404.1037392000435,None,404.1037392000435,None,403.6033791999798,None,f,1.0950212000170723,404.1037392000435,None,,,,,,,,,,,,,g,001,2021_Jul_02_1456,toilet,2021.1.3,99.93963648857233,
0,0,-4,4,1.03,,,,,0,0,0,0,1,54,110,4,,,,,,,,,,,,,,,,,,,,,,,406.2151710999897,None,406.2151710999897,None,405.7148098000325,None,j,0.9195882000494748,406.2151710999897,None,,,,,,,,,,,,,g,001,2021_Jul_02_1456,toilet,2021.1.3,99.93963648857233,
180,0,4,-4,1.15,,,,,0,0,0,0,1,55,111,55,,,,,,,,,,,,,,,,,,,,,,,408.14650779997464,None,408.14650779997464,None,407.64622190000955,None,f,0.7962103000609204,408.14650779997464,None,,,,,,,,,,,,,g,001,2021_Jul_02_1456,toilet,2021.1.3,99.93963648857233,
,,,,,,,,,0,0,0,0,,,,,,,,,,,,,,,,,,,,,,,,,,,,,,,,,,,,,408.96706920000724,None,space,8.599619499989785,408.96706920000724,None,,,,,,,g,001,2021_Jul_02_1456,toilet,2021.1.3,99.93963648857233,
0,0,-4,4,1.06,,,,,1,0,1,0,0,0,0,5,,,,,,,,,,,,,,,,,417.582848799997,None,space,2.975923700025305,417.582848799997,None,421.5855574000161,None,421.5855574000161,None,421.08522100001574,None,j,0.8131988999666646,421.5855574000161,None,,,,,,,,,,,,,g,001,2021_Jul_02_1456,toilet,2021.1.3,99.93963648857233,
180,180,-4,4,0.97,,,,,1,0,1,0,0,1,1,30,,,,,,,,,,,,,,,,,,,,,,,423.41689650004264,None,423.41689650004264,None,422.91654900007416,None,f,1.3657728999387473,423.41689650004264,None,,,,,,,,,,,,,g,001,2021_Jul_02_1456,toilet,2021.1.3,99.93963648857233,
180,0,4,-4,1.0,,,,,1,0,1,0,0,2,2,52,,,,,,,,,,,,,,,,,,,,,,,425.78841690008994,None,425.78841690008994,None,425.28807150002103,None,f,1.9222771000349894,425.78841690008994,None,,,,,,,,,,,,,g,001,2021_Jul_02_1456,toilet,2021.1.3,99.93963648857233,
0,180,-4,4,1.15,,,,,1,0,1,0,0,3,3,20,,,,,,,,,,,,,,,,,,,,,,,428.7203976000892,None,428.7203976000892,None,428.2200595000759,None,j,0.5423310999758542,428.7203976000892,None,,,,,,,,,,,,,g,001,2021_Jul_02_1456,toilet,2021.1.3,99.93963648857233,
0,0,-4,4,1.03,,,,,1,0,1,0,0,4,4,4,,,,,,,,,,,,,,,,,,,,,,,430.2815391999902,None,430.2815391999902,None,429.7811089999741,None,j,0.5333786000264809,430.2815391999902,None,,,,,,,,,,,,,g,001,2021_Jul_02_1456,toilet,2021.1.3,99.93963648857233,
180,180,4,-4,0.97,,,,,1,0,1,0,0,5,5,37,,,,,,,,,,,,,,,,,,,,,,,431.8324983000057,None,431.8324983000057,None,431.33218350005336,None,j,0.7260865999851376,431.8324983000057,None,,,,,,,,,,,,,g,001,2021_Jul_02_1456,toilet,2021.1.3,99.93963648857233,
0,0,4,-4,1.0,,,,,1,0,1,0,0,6,6,10,,,,,,,,,,,,,,,,,,,,,,,433.5636738999747,None,433.5636738999747,None,433.0633342000656,None,j,1.7789957000641152,433.5636738999747,None,,,,,,,,,,,,,g,001,2021_Jul_02_1456,toilet,2021.1.3,99.93963648857233,
0,180,-4,4,1.0,,,,,1,0,1,0,0,7,7,17,,,,,,,,,,,,,,,,,,,,,,,436.3455554000102,None,436.3455554000102,None,435.8452224000357,None,j,1.50916439993307,436.3455554000102,None,,,,,,,,,,,,,g,001,2021_Jul_02_1456,toilet,2021.1.3,99.93963648857233,
0,180,4,-4,1.03,,,,,1,0,1,0,0,8,8,25,,,,,,,,,,,,,,,,,,,,,,,438.86727510008495,None,438.86727510008495,None,438.3669268999947,None,j,2.203292499994859,438.86727510008495,None,,,,,,,,,,,,,g,001,2021_Jul_02_1456,toilet,2021.1.3,99.93963648857233,
180,180,4,-4,0.85,,,,,1,0,1,0,0,9,9,35,,,,,,,,,,,,,,,,,,,,,,,442.0794412000105,None,442.0794412000105,None,441.57910279999487,None,j,0.5592113999882713,442.0794412000105,None,,,,,,,,,,,,,g,001,2021_Jul_02_1456,toilet,2021.1.3,99.93963648857233,
0,180,4,-4,1.0,,,,,1,0,1,0,0,10,10,24,,,,,,,,,,,,,,,,,,,,,,,443.65050690004136,None,443.65050690004136,None,443.15017350006383,None,f,1.3881587999640033,443.65050690004136,None,,,,,,,,,,,,,g,001,2021_Jul_02_1456,toilet,2021.1.3,99.93963648857233,
180,0,4,-4,0.85,,,,,1,0,1,0,0,11,11,49,,,,,,,,,,,,,,,,,,,,,,,446.05213189998176,None,446.05213189998176,None,445.55189310002606,None,j,0.7304835000541061,446.05213189998176,None,,,,,,,,,,,,,g,001,2021_Jul_02_1456,toilet,2021.1.3,99.93963648857233,
180,0,-4,4,1.06,,,,,1,0,1,0,0,12,12,47,,,,,,,,,,,,,,,,,,,,,,,447.78330390003975,None,447.78330390003975,None,447.28296580002643,None,j,0.7432891998905689,447.78330390003975,None,,,,,,,,,,,,,g,001,2021_Jul_02_1456,toilet,2021.1.3,99.93963648857233,
0,0,4,-4,0.85,,,,,1,0,1,0,0,13,13,7,,,,,,,,,,,,,,,,,,,,,,,449.5344904999947,None,449.5344904999947,None,449.0341518999776,None,j,0.5441285000415519,449.5344904999947,None,,,,,,,,,,,,,g,001,2021_Jul_02_1456,toilet,2021.1.3,99.93963648857233,
0,0,-4,4,0.85,,,,,1,0,1,0,0,14,14,0,,,,,,,,,,,,,,,,,,,,,,,451.0956345000304,None,451.0956345000304,None,450.59520990005694,None,f,0.519029299961403,451.0956345000304,None,,,,,,,,,,,,,g,001,2021_Jul_02_1456,toilet,2021.1.3,99.93963648857233,
0,180,4,-4,0.97,,,,,1,0,1,0,0,15,15,23,,,,,,,,,,,,,,,,,,,,,,,452.6265927000204,None,452.6265927000204,None,452.1263477000175,None,j,1.2280077999457717,452.6265927000204,None,,,,,,,,,,,,,g,001,2021_Jul_02_1456,toilet,2021.1.3,99.93963648857233,
0,0,-4,4,1.15,,,,,1,0,1,0,0,16,16,6,,,,,,,,,,,,,,,,,,,,,,,454.8581033999799,None,454.8581033999799,None,454.35775760002434,None,j,0.4846018999814987,454.8581033999799,None,,,,,,,,,,,,,g,001,2021_Jul_02_1456,toilet,2021.1.3,99.93963648857233,
180,0,4,-4,1.06,,,,,1,0,1,0,0,17,17,54,,,,,,,,,,,,,,,,,,,,,,,456.349109300063,None,456.349109300063,None,455.8487737000687,None,f,1.089568700059317,456.349109300063,None,,,,,,,,,,,,,g,001,2021_Jul_02_1456,toilet,2021.1.3,99.93963648857233,
0,0,4,-4,1.03,,,,,1,0,1,0,0,18,18,11,,,,,,,,,,,,,,,,,,,,,,,458.45053140004165,None,458.45053140004165,None,457.95018829999026,None,f,1.8361915999557823,458.45053140004165,None,,,,,,,,,,,,,g,001,2021_Jul_02_1456,toilet,2021.1.3,99.93963648857233,
0,180,-4,4,0.97,,,,,1,0,1,0,0,19,19,16,,,,,,,,,,,,,,,,,,,,,,,461.30247710004915,None,461.30247710004915,None,460.80212180002127,None,f,1.800192299997434,461.30247710004915,None,,,,,,,,,,,,,g,001,2021_Jul_02_1456,toilet,2021.1.3,99.93963648857233,
180,0,-4,4,1.0,,,,,1,0,1,0,0,20,20,45,,,,,,,,,,,,,,,,,,,,,,,464.114365400048,None,464.114365400048,None,463.614025900024,None,j,1.0523252000566572,464.114365400048,None,,,,,,,,,,,,,g,001,2021_Jul_02_1456,toilet,2021.1.3,99.93963648857233,
180,0,4,-4,1.15,,,,,1,0,1,0,0,21,21,55,,,,,,,,,,,,,,,,,,,,,,,466.17576090001967,None,466.17576090001967,None,465.6754257000284,None,f,0.9269134999485686,466.17576090001967,None,,,,,,,,,,,,,g,001,2021_Jul_02_1456,toilet,2021.1.3,99.93963648857233,
0,180,4,-4,1.06,,,,,1,0,1,0,0,22,22,26,,,,,,,,,,,,,,,,,,,,,,,468.11707869998645,None,468.11707869998645,None,467.61681869998574,None,f,1.8015001999447122,468.11707869998645,None,,,,,,,,,,,,,g,001,2021_Jul_02_1456,toilet,2021.1.3,99.93963648857233,
180,180,4,-4,1.0,,,,,1,0,1,0,0,23,23,38,,,,,,,,,,,,,,,,,,,,,,,470.92901750002056,None,470.92901750002056,None,470.4286428000778,None,j,0.7816520999185741,470.92901750002056,None,,,,,,,,,,,,,g,001,2021_Jul_02_1456,toilet,2021.1.3,99.93963648857233,
0,180,4,-4,1.15,,,,,1,0,1,0,0,24,24,27,,,,,,,,,,,,,,,,,,,,,,,472.7201934000477,None,472.7201934000477,None,472.2198555000359,None,f,1.678449200000614,472.7201934000477,None,,,,,,,,,,,,,g,001,2021_Jul_02_1456,toilet,2021.1.3,99.93963648857233,
180,180,-4,4,1.15,,,,,1,0,1,0,0,25,25,34,,,,,,,,,,,,,,,,,,,,,,,475.4120207000524,None,475.4120207000524,None,474.9116825000383,None,j,0.570683200028725,475.4120207000524,None,,,,,,,,,,,,,g,001,2021_Jul_02_1456,toilet,2021.1.3,99.93963648857233,
180,0,-4,4,0.85,,,,,1,0,1,0,0,26,26,42,,,,,,,,,,,,,,,,,,,,,,,476.98308540007565,None,476.98308540007565,None,476.482740300009,None,f,0.9674431000603363,476.98308540007565,None,,,,,,,,,,,,,g,001,2021_Jul_02_1456,toilet,2021.1.3,99.93963648857233,
0,180,-4,4,0.94,,,,,1,0,1,0,0,27,27,15,,,,,,,,,,,,,,,,,,,,,,,478.9544160000514,None,478.9544160000514,None,478.4541116000619,None,f,1.7643771000439301,478.9544160000514,None,,,,,,,,,,,,,g,001,2021_Jul_02_1456,toilet,2021.1.3,99.93963648857233,
180,180,-4,4,1.0,,,,,1,0,1,0,0,28,28,31,,,,,,,,,,,,,,,,,,,,,,,481.7463886999758,None,481.7463886999758,None,481.2459672000259,None,j,0.6202964000403881,481.7463886999758,None,,,,,,,,,,,,,g,001,2021_Jul_02_1456,toilet,2021.1.3,99.93963648857233,
180,0,-4,4,1.03,,,,,1,0,1,0,0,29,29,46,,,,,,,,,,,,,,,,,,,,,,,483.37741559999995,None,483.37741559999995,None,482.87707360007335,None,j,0.7172626999672502,483.37741559999995,None,,,,,,,,,,,,,g,001,2021_Jul_02_1456,toilet,2021.1.3,99.93963648857233,
180,180,4,-4,0.94,,,,,1,0,1,0,0,30,30,36,,,,,,,,,,,,,,,,,,,,,,,485.09858130000066,None,485.09858130000066,None,484.5982474000193,None,j,1.6200395999476314,485.09858130000066,None,,,,,,,,,,,,,g,001,2021_Jul_02_1456,toilet,2021.1.3,99.93963648857233,
0,0,4,-4,0.97,,,,,1,0,1,0,0,31,31,9,,,,,,,,,,,,,,,,,,,,,,,487.7303586000344,None,487.7303586000344,None,487.2300217000302,None,j,1.2763452999060974,487.7303586000344,None,,,,,,,,,,,,,g,001,2021_Jul_02_1456,toilet,2021.1.3,99.93963648857233,
180,0,4,-4,0.97,,,,,1,0,1,0,0,32,32,51,,,,,,,,,,,,,,,,,,,,,,,490.02192800003104,None,490.02192800003104,None,489.5216572000645,None,j,1.8006330000935122,490.02192800003104,None,,,,,,,,,,,,,g,001,2021_Jul_02_1456,toilet,2021.1.3,99.93963648857233,
180,180,4,-4,1.03,,,,,1,0,1,0,0,33,33,39,,,,,,,,,,,,,,,,,,,,,,,492.8238104999764,None,492.8238104999764,None,492.3234706000658,None,j,1.7508182000601664,492.8238104999764,None,,,,,,,,,,,,,g,001,2021_Jul_02_1456,toilet,2021.1.3,99.93963648857233,
180,180,-4,4,1.06,,,,,1,0,1,0,0,34,34,33,,,,,,,,,,,,,,,,,,,,,,,495.5857694000006,None,495.5857694000006,None,495.08534230000805,None,j,0.7648892999859527,495.5857694000006,None,,,,,,,,,,,,,g,001,2021_Jul_02_1456,toilet,2021.1.3,99.93963648857233,
0,180,-4,4,0.85,,,,,1,0,1,0,0,35,35,14,,,,,,,,,,,,,,,,,,,,,,,497.36693120002747,None,497.36693120002747,None,496.86653900006786,None,f,0.5836530000669882,497.36693120002747,None,,,,,,,,,,,,,g,001,2021_Jul_02_1456,toilet,2021.1.3,99.93963648857233,
180,180,-4,4,0.94,,,,,1,0,1,0,0,36,36,29,,,,,,,,,,,,,,,,,,,,,,,498.95796869997866,None,498.95796869997866,None,498.45762490003835,None,f,0.8166033000452444,498.95796869997866,None,,,,,,,,,,,,,g,001,2021_Jul_02_1456,toilet,2021.1.3,99.93963648857233,
0,0,4,-4,1.06,,,,,1,0,1,0,0,37,37,12,,,,,,,,,,,,,,,,,,,,,,,500.77920019999146,None,500.77920019999146,None,500.2788694000337,None,f,1.8755029999883845,500.77920019999146,None,,,,,,,,,,,,,g,001,2021_Jul_02_1456,toilet,2021.1.3,99.93963648857233,
180,180,4,-4,1.06,,,,,1,0,1,0,0,38,38,40,,,,,,,,,,,,,,,,,,,,,,,503.681251800037,None,503.681251800037,None,503.1808218000224,None,f,0.8614241000032052,503.681251800037,None,,,,,,,,,,,,,g,001,2021_Jul_02_1456,toilet,2021.1.3,99.93963648857233,
180,0,-4,4,0.94,,,,,1,0,1,0,0,39,39,43,,,,,,,,,,,,,,,,,,,,,,,505.5524294000352,None,505.5524294000352,None,505.0520906000165,None,f,1.5501320000039414,505.5524294000352,None,,,,,,,,,,,,,g,001,2021_Jul_02_1456,toilet,2021.1.3,99.93963648857233,
0,0,4,-4,1.15,,,,,1,0,1,0,0,40,40,13,,,,,,,,,,,,,,,,,,,,,,,508.1041580000892,None,508.1041580000892,None,507.6038210000843,None,f,0.7584728000219911,508.1041580000892,None,,,,,,,,,,,,,g,001,2021_Jul_02_1456,toilet,2021.1.3,99.93963648857233,
180,0,-4,4,1.15,,,,,1,0,1,0,0,41,41,48,,,,,,,,,,,,,,,,,,,,,,,509.87535690004006,None,509.87535690004006,None,509.3750179000199,None,j,0.5712250999640673,509.87535690004006,None,,,,,,,,,,,,,g,001,2021_Jul_02_1456,toilet,2021.1.3,99.93963648857233,
0,180,4,-4,0.94,,,,,1,0,1,0,0,42,42,22,,,,,,,,,,,,,,,,,,,,,,,511.45651400007773,None,511.45651400007773,None,510.9561746000545,None,j,0.6380808000685647,511.45651400007773,None,,,,,,,,,,,,,g,001,2021_Jul_02_1456,toilet,2021.1.3,99.93963648857233,
0,180,-4,4,1.03,,,,,1,0,1,0,0,43,43,18,,,,,,,,,,,,,,,,,,,,,,,513.1075518000871,None,513.1075518000871,None,512.6072087000357,None,j,1.5469371000071988,513.1075518000871,None,,,,,,,,,,,,,g,001,2021_Jul_02_1456,toilet,2021.1.3,99.93963648857233,
180,180,-4,4,0.85,,,,,1,0,1,0,0,44,44,28,,,,,,,,,,,,,,,,,,,,,,,515.6592758999905,None,515.6592758999905,None,515.1589367000852,None,f,0.6273843999952078,515.6592758999905,None,,,,,,,,,,,,,g,001,2021_Jul_02_1456,toilet,2021.1.3,99.93963648857233,
180,0,4,-4,1.03,,,,,1,0,1,0,0,45,45,53,,,,,,,,,,,,,,,,,,,,,,,517.3103946000338,None,517.3103946000338,None,516.8100607000524,None,f,2.6401134999468923,517.3103946000338,None,,,,,,,,,,,,,g,001,2021_Jul_02_1456,toilet,2021.1.3,99.93963648857233,
180,0,-4,4,0.97,,,,,1,0,1,0,0,46,46,44,,,,,,,,,,,,,,,,,,,,,,,520.9528609000845,None,520.9528609000845,None,520.4525205000537,None,j,1.2857938000233844,520.9528609000845,None,,,,,,,,,,,,,g,001,2021_Jul_02_1456,toilet,2021.1.3,99.93963648857233,
180,0,4,-4,0.94,,,,,1,0,1,0,0,47,47,50,,,,,,,,,,,,,,,,,,,,,,,523.2644306999864,None,523.2644306999864,None,522.7640849000309,None,j,2.590050800004974,523.2644306999864,None,,,,,,,,,,,,,g,001,2021_Jul_02_1456,toilet,2021.1.3,99.93963648857233,
180,180,-4,4,1.03,,,,,1,0,1,0,0,48,48,32,,,,,,,,,,,,,,,,,,,,,,,526.8569590999978,None,526.8569590999978,None,526.3565976000391,None,j,0.6616098000667989,526.8569590999978,None,,,,,,,,,,,,,g,001,2021_Jul_02_1456,toilet,2021.1.3,99.93963648857233,
180,180,4,-4,1.15,,,,,1,0,1,0,0,49,49,41,,,,,,,,,,,,,,,,,,,,,,,528.5179816000164,None,528.5179816000164,None,528.017661800026,None,f,0.6805941999191418,528.5179816000164,None,,,,,,,,,,,,,g,001,2021_Jul_02_1456,toilet,2021.1.3,99.93963648857233,
0,0,-4,4,1.0,,,,,1,0,1,0,0,50,50,3,,,,,,,,,,,,,,,,,,,,,,,530.1991227000253,None,530.1991227000253,None,529.6987852000166,None,j,0.9194810999324545,530.1991227000253,None,,,,,,,,,,,,,g,001,2021_Jul_02_1456,toilet,2021.1.3,99.93963648857233,
0,180,-4,4,1.06,,,,,1,0,1,0,0,51,51,19,,,,,,,,,,,,,,,,,,,,,,,532.1305251000449,None,532.1305251000449,None,531.6300998000661,None,j,1.7880288999294862,532.1305251000449,None,,,,,,,,,,,,,g,001,2021_Jul_02_1456,toilet,2021.1.3,99.93963648857233,
0,0,-4,4,0.97,,,,,1,0,1,0,0,52,52,2,,,,,,,,,,,,,,,,,,,,,,,534.9323337000096,None,534.9323337000096,None,534.4319856000366,None,f,1.130142799927853,534.9323337000096,None,,,,,,,,,,,,,g,001,2021_Jul_02_1456,toilet,2021.1.3,99.93963648857233,
0,0,4,-4,0.94,,,,,1,0,1,0,0,53,53,8,,,,,,,,,,,,,,,,,,,,,,,537.0637738000369,None,537.0637738000369,None,536.5634356000228,None,j,1.2228705999441445,537.0637738000369,None,,,,,,,,,,,,,g,001,2021_Jul_02_1456,toilet,2021.1.3,99.93963648857233,
0,180,4,-4,0.85,,,,,1,0,1,0,0,54,54,21,,,,,,,,,,,,,,,,,,,,,,,539.3052901000483,None,539.3052901000483,None,538.804952000035,None,j,0.9975428000325337,539.3052901000483,None,,,,,,,,,,,,,g,001,2021_Jul_02_1456,toilet,2021.1.3,99.93963648857233,
0,0,-4,4,0.94,,,,,1,0,1,0,0,55,55,1,,,,,,,,,,,,,,,,,,,,,,,541.316653600079,None,541.316653600079,None,540.8164140000008,None,f,0.777819300070405,541.316653600079,None,,,,,,,,,,,,,g,001,2021_Jul_02_1456,toilet,2021.1.3,99.93963648857233,
180,180,4,-4,1.06,,,,,1,0,1,0,1,0,56,40,,,,,,,,,,,,,,,,,,,,,,,543.0978638000088,None,543.0978638000088,None,542.5975244999863,None,f,1.092760100029409,543.0978638000088,None,,,,,,,,,,,,,g,001,2021_Jul_02_1456,toilet,2021.1.3,99.93963648857233,
180,0,4,-4,1.03,,,,,1,0,1,0,1,1,57,53,,,,,,,,,,,,,,,,,,,,,,,545.2192967000883,None,545.2192967000883,None,544.7189547000453,None,f,1.6752201999770477,545.2192967000883,None,,,,,,,,,,,,,g,001,2021_Jul_02_1456,toilet,2021.1.3,99.93963648857233,
180,180,-4,4,0.94,,,,,1,0,1,0,1,2,58,29,,,,,,,,,,,,,,,,,,,,,,,547.9011895000003,None,547.9011895000003,None,547.4008528999984,None,f,0.897409199969843,547.9011895000003,None,,,,,,,,,,,,,g,001,2021_Jul_02_1456,toilet,2021.1.3,99.93963648857233,
0,180,-4,4,1.03,,,,,1,0,1,0,1,3,59,18,,,,,,,,,,,,,,,,,,,,,,,549.8124022000702,None,549.8124022000702,None,549.3120676000835,None,j,1.2422031000023708,549.8124022000702,None,,,,,,,,,,,,,g,001,2021_Jul_02_1456,toilet,2021.1.3,99.93963648857233,
0,0,4,-4,1.15,,,,,1,0,1,0,1,4,60,13,,,,,,,,,,,,,,,,,,,,,,,552.0539231000002,None,552.0539231000002,None,551.5535848999862,None,f,0.7605729999486357,552.0539231000002,None,,,,,,,,,,,,,g,001,2021_Jul_02_1456,toilet,2021.1.3,99.93963648857233,
0,0,4,-4,1.06,,,,,1,0,1,0,1,5,61,12,,,,,,,,,,,,,,,,,,,,,,,553.8151194000384,None,553.8151194000384,None,553.314782600035,None,f,0.6953270999947563,553.8151194000384,None,,,,,,,,,,,,,g,001,2021_Jul_02_1456,toilet,2021.1.3,99.93963648857233,
180,180,4,-4,1.15,,,,,1,0,1,0,1,6,62,41,,,,,,,,,,,,,,,,,,,,,,,555.5163506000536,None,555.5163506000536,None,555.016045800061,None,f,0.7222778999712318,555.5163506000536,None,,,,,,,,,,,,,g,001,2021_Jul_02_1456,toilet,2021.1.3,99.93963648857233,
0,0,4,-4,1.0,,,,,1,0,1,0,1,7,63,10,,,,,,,,,,,,,,,,,,,,,,,557.2574505000375,None,557.2574505000375,None,556.7571083999937,None,f,2.6611035999376327,557.2574505000375,None,,,,,,,,,,,,,g,001,2021_Jul_02_1456,toilet,2021.1.3,99.93963648857233,
0,0,-4,4,0.97,,,,,1,0,1,0,1,8,64,2,,,,,,,,,,,,,,,,,,,,,,,560.929937900044,None,560.929937900044,None,560.4295968000079,None,f,1.6606102000223473,560.929937900044,None,,,,,,,,,,,,,g,001,2021_Jul_02_1456,toilet,2021.1.3,99.93963648857233,
180,180,4,-4,0.94,,,,,1,0,1,0,1,9,65,36,,,,,,,,,,,,,,,,,,,,,,,563.591770100058,None,563.591770100058,None,563.1015028000111,None,j,0.5507061999524012,563.591770100058,None,,,,,,,,,,,,,g,001,2021_Jul_02_1456,toilet,2021.1.3,99.93963648857233,
0,180,4,-4,0.85,,,,,1,0,1,0,1,10,66,21,,,,,,,,,,,,,,,,,,,,,,,565.1427901000716,None,565.1427901000716,None,564.6424487000331,None,j,0.5197566000279039,565.1427901000716,None,,,,,,,,,,,,,g,001,2021_Jul_02_1456,toilet,2021.1.3,99.93963648857233,
0,180,4,-4,1.0,,,,,1,0,1,0,1,11,67,24,,,,,,,,,,,,,,,,,,,,,,,566.6638238000451,None,566.6638238000451,None,566.1634780999739,None,j,0.9186570000601932,566.6638238000451,None,,,,,,,,,,,,,g,001,2021_Jul_02_1456,toilet,2021.1.3,99.93963648857233,
0,180,-4,4,0.94,,,,,1,0,1,0,1,12,68,15,,,,,,,,,,,,,,,,,,,,,,,568.585119400057,None,568.585119400057,None,568.084781600046,None,f,1.1575964000076056,568.585119400057,None,,,,,,,,,,,,,g,001,2021_Jul_02_1456,toilet,2021.1.3,99.93963648857233,
180,180,-4,4,1.0,,,,,1,0,1,0,1,13,69,31,,,,,,,,,,,,,,,,,,,,,,,570.7666928999824,None,570.7666928999824,None,570.2662571000401,None,j,0.5917257000692189,570.7666928999824,None,,,,,,,,,,,,,g,001,2021_Jul_02_1456,toilet,2021.1.3,99.93963648857233,
180,0,-4,4,1.06,,,,,1,0,1,0,1,14,70,47,,,,,,,,,,,,,,,,,,,,,,,572.367681600037,None,572.367681600037,None,571.8673404000001,None,j,0.8308760999934748,572.367681600037,None,,,,,,,,,,,,,g,001,2021_Jul_02_1456,toilet,2021.1.3,99.93963648857233,
0,0,-4,4,1.06,,,,,1,0,1,0,1,15,71,5,,,,,,,,,,,,,,,,,,,,,,,574.1989220000105,None,574.1989220000105,None,573.6985854000086,None,j,1.0478141999337822,574.1989220000105,None,,,,,,,,,,,,,g,001,2021_Jul_02_1456,toilet,2021.1.3,99.93963648857233,
0,0,4,-4,0.94,,,,,1,0,1,0,1,16,72,8,,,,,,,,,,,,,,,,,,,,,,,576.2504007000243,None,576.2504007000243,None,575.7599598000525,None,j,0.7561231999425218,576.2504007000243,None,,,,,,,,,,,,,g,001,2021_Jul_02_1456,toilet,2021.1.3,99.93963648857233,
0,180,-4,4,1.06,,,,,1,0,1,0,1,17,73,19,,,,,,,,,,,,,,,,,,,,,,,578.0216108000604,None,578.0216108000604,None,577.5212804999901,None,j,2.2008146999869496,578.0216108000604,None,,,,,,,,,,,,,g,001,2021_Jul_02_1456,toilet,2021.1.3,99.93963648857233,
0,0,-4,4,1.0,,,,,1,0,1,0,1,18,74,3,,,,,,,,,,,,,,,,,,,,,,,581.2236832000781,None,581.2236832000781,None,580.7233403000282,None,j,0.8869401999982074,581.2236832000781,None,,,,,,,,,,,,,g,001,2021_Jul_02_1456,toilet,2021.1.3,99.93963648857233,
180,0,4,-4,1.0,,,,,1,0,1,0,1,19,75,52,,,,,,,,,,,,,,,,,,,,,,,583.1349714000244,None,583.1349714000244,None,582.6346360000316,None,j,1.9675960999447852,583.1349714000244,None,,,,,,,,,,,,,g,001,2021_Jul_02_1456,toilet,2021.1.3,99.93963648857233,
180,180,4,-4,1.0,,,,,1,0,1,0,1,20,76,38,,,,,,,,,,,,,,,,,,,,,,,586.1169975000666,None,586.1169975000666,None,585.616738300072,None,j,0.7774091000901535,586.1169975000666,None,,,,,,,,,,,,,g,001,2021_Jul_02_1456,toilet,2021.1.3,99.93963648857233,
180,0,4,-4,0.97,,,,,1,0,1,0,1,21,77,51,,,,,,,,,,,,,,,,,,,,,,,587.8981966000283,None,587.8981966000283,None,587.3978608000325,None,j,1.5083606999833137,587.8981966000283,None,,,,,,,,,,,,,g,001,2021_Jul_02_1456,toilet,2021.1.3,99.93963648857233,
180,0,-4,4,0.85,,,,,1,0,1,0,1,22,78,42,,,,,,,,,,,,,,,,,,,,,,,590.4199058000231,None,590.4199058000231,None,589.9195738000562,None,f,0.6826912999385968,590.4199058000231,None,,,,,,,,,,,,,g,001,2021_Jul_02_1456,toilet,2021.1.3,99.93963648857233,
180,0,-4,4,1.15,,,,,1,0,1,0,1,23,79,48,,,,,,,,,,,,,,,,,,,,,,,592.1211394000566,None,592.1211394000566,None,591.620717599988,None,j,0.5332650999771431,592.1211394000566,None,,,,,,,,,,,,,g,001,2021_Jul_02_1456,toilet,2021.1.3,99.93963648857233,
0,180,-4,4,1.0,,,,,1,0,1,0,1,24,80,17,,,,,,,,,,,,,,,,,,,,,,,593.6621064000065,None,593.6621064000065,None,593.1618613000028,None,f,1.6483642000239342,593.6621064000065,None,,,,,,,,,,,,,g,001,2021_Jul_02_1456,toilet,2021.1.3,99.93963648857233,
180,180,-4,4,1.06,,,,,1,0,1,0,1,25,81,33,,,,,,,,,,,,,,,,,,,,,,,596.3139036999783,None,596.3139036999783,None,595.8135576000204,None,j,0.5806621999945492,596.3139036999783,None,,,,,,,,,,,,,g,001,2021_Jul_02_1456,toilet,2021.1.3,99.93963648857233,
0,180,4,-4,1.06,,,,,1,0,1,0,1,26,82,26,,,,,,,,,,,,,,,,,,,,,,,597.9049731000559,None,597.9049731000559,None,597.4046328000259,None,f,2.6216093000257388,597.9049731000559,None,,,,,,,,,,,,,g,001,2021_Jul_02_1456,toilet,2021.1.3,99.93963648857233,
180,0,-4,4,0.97,,,,,1,0,1,0,1,27,83,44,,,,,,,,,,,,,,,,,,,,,,,601.5373942999868,None,601.5373942999868,None,601.0370979000581,None,f,1.7250843000365421,601.5373942999868,None,,,,,,,,,,,,,g,001,2021_Jul_02_1456,toilet,2021.1.3,99.93963648857233,
180,0,-4,4,1.03,,,,,1,0,1,0,1,28,84,46,,,,,,,,,,,,,,,,,,,,,,,604.279299100046,None,604.279299100046,None,603.7789518000791,None,j,0.5990992001025006,604.279299100046,None,,,,,,,,,,,,,g,001,2021_Jul_02_1456,toilet,2021.1.3,99.93963648857233,
180,180,-4,4,0.85,,,,,1,0,1,0,1,29,85,28,,,,,,,,,,,,,,,,,,,,,,,605.8804544000886,None,605.8804544000886,None,605.3800393000711,None,f,0.5179233000380918,605.8804544000886,None,,,,,,,,,,,,,g,001,2021_Jul_02_1456,toilet,2021.1.3,99.93963648857233,
180,0,4,-4,0.94,,,,,1,0,1,0,1,30,86,50,,,,,,,,,,,,,,,,,,,,,,,607.4015041000675,None,607.4015041000675,None,606.9010812999913,None,j,1.3169384999200702,607.4015041000675,None,,,,,,,,,,,,,g,001,2021_Jul_02_1456,toilet,2021.1.3,99.93963648857233,
180,0,4,-4,0.85,,,,,1,0,1,0,1,31,87,49,,,,,,,,,,,,,,,,,,,,,,,609.7229798000772,None,609.7229798000772,None,609.222651500022,None,j,0.6596620000200346,609.7229798000772,None,,,,,,,,,,,,,g,001,2021_Jul_02_1456,toilet,2021.1.3,99.93963648857233,
0,0,-4,4,1.03,,,,,1,0,1,0,1,32,88,4,,,,,,,,,,,,,,,,,,,,,,,611.3941145000281,None,611.3941145000281,None,610.8937709999736,None,j,1.5164314999710768,611.3941145000281,None,,,,,,,,,,,,,g,001,2021_Jul_02_1456,toilet,2021.1.3,99.93963648857233,
180,180,4,-4,0.97,,,,,1,0,1,0,1,33,89,37,,,,,,,,,,,,,,,,,,,,,,,613.9258213000139,None,613.9258213000139,None,613.4255846000742,None,j,1.640573599957861,613.9258213000139,None,,,,,,,,,,,,,g,001,2021_Jul_02_1456,toilet,2021.1.3,99.93963648857233,
180,180,-4,4,1.03,,,,,1,0,1,0,1,34,90,32,,,,,,,,,,,,,,,,,,,,,,,616.5676185999764,None,616.5676185999764,None,616.067282199976,None,j,0.7108125999802724,616.5676185999764,None,,,,,,,,,,,,,g,001,2021_Jul_02_1456,toilet,2021.1.3,99.93963648857233,
0,180,-4,4,1.15,,,,,1,0,1,0,1,35,91,20,,,,,,,,,,,,,,,,,,,,,,,618.2787697999738,None,618.2787697999738,None,617.7784366999986,None,j,0.8556736999889836,618.2787697999738,None,,,,,,,,,,,,,g,001,2021_Jul_02_1456,toilet,2021.1.3,99.93963648857233,
0,0,4,-4,0.85,,,,,1,0,1,0,1,36,92,7,,,,,,,,,,,,,,,,,,,,,,,620.1400368000614,None,620.1400368000614,None,619.6396938000107,None,j,0.6264381000073627,620.1400368000614,None,,,,,,,,,,,,,g,001,2021_Jul_02_1456,toilet,2021.1.3,99.93963648857233,
0,180,-4,4,0.97,,,,,1,0,1,0,1,37,93,16,,,,,,,,,,,,,,,,,,,,,,,621.7711811000481,None,621.7711811000481,None,621.2708631000714,None,f,0.7392964999889955,621.7711811000481,None,,,,,,,,,,,,,g,001,2021_Jul_02_1456,toilet,2021.1.3,99.93963648857233,
0,0,-4,4,0.85,,,,,1,0,1,0,1,38,94,0,,,,,,,,,,,,,,,,,,,,,,,623.5223240000196,None,623.5223240000196,None,623.0219814000884,None,f,0.5240682999137789,623.5223240000196,None,,,,,,,,,,,,,g,001,2021_Jul_02_1456,toilet,2021.1.3,99.93963648857233,
180,0,-4,4,0.94,,,,,1,0,1,0,1,39,95,43,,,,,,,,,,,,,,,,,,,,,,,625.0533580000047,None,625.0533580000047,None,624.5530236000195,None,f,1.0251945999916643,625.0533580000047,None,,,,,,,,,,,,,g,001,2021_Jul_02_1456,toilet,2021.1.3,99.93963648857233,
0,180,-4,4,0.85,,,,,1,0,1,0,1,40,96,14,,,,,,,,,,,,,,,,,,,,,,,627.0947408999782,None,627.0947408999782,None,626.5944081000052,None,f,0.7596572999609634,627.0947408999782,None,,,,,,,,,,,,,g,001,2021_Jul_02_1456,toilet,2021.1.3,99.93963648857233,
180,0,4,-4,1.15,,,,,1,0,1,0,1,41,97,55,,,,,,,,,,,,,,,,,,,,,,,628.8559507000027,None,628.8559507000027,None,628.3556854000781,None,f,0.6146794999949634,628.8559507000027,None,,,,,,,,,,,,,g,001,2021_Jul_02_1456,toilet,2021.1.3,99.93963648857233,
0,180,4,-4,0.97,,,,,1,0,1,0,1,42,98,23,,,,,,,,,,,,,,,,,,,,,,,630.4970497000031,None,630.4970497000031,None,629.9967288000043,None,j,1.0053370000096038,630.4970497000031,None,,,,,,,,,,,,,g,001,2021_Jul_02_1456,toilet,2021.1.3,99.93963648857233,
0,0,-4,4,1.15,,,,,1,0,1,0,1,43,99,6,,,,,,,,,,,,,,,,,,,,,,,632.5084125000285,None,632.5084125000285,None,632.0080679000821,None,j,0.6103293999331072,632.5084125000285,None,,,,,,,,,,,,,g,001,2021_Jul_02_1456,toilet,2021.1.3,99.93963648857233,
0,0,4,-4,0.97,,,,,1,0,1,0,1,44,100,9,,,,,,,,,,,,,,,,,,,,,,,634.1295058000833,None,634.1295058000833,None,633.629169800086,None,f,1.356854600016959,634.1295058000833,None,,,,,,,,,,,,,g,001,2021_Jul_02_1456,toilet,2021.1.3,99.93963648857233,
0,180,4,-4,0.94,,,,,1,0,1,0,1,45,101,22,,,,,,,,,,,,,,,,,,,,,,,636.4911925999913,None,636.4911925999913,None,635.9908419999992,None,j,0.6433915999950841,636.4911925999913,None,,,,,,,,,,,,,g,001,2021_Jul_02_1456,toilet,2021.1.3,99.93963648857233,
0,0,4,-4,1.03,,,,,1,0,1,0,1,46,102,11,,,,,,,,,,,,,,,,,,,,,,,638.152232100023,None,638.152232100023,None,637.6518891000887,None,f,0.6621998999034986,638.152232100023,None,,,,,,,,,,,,,g,001,2021_Jul_02_1456,toilet,2021.1.3,99.93963648857233,
180,180,4,-4,0.85,,,,,1,0,1,0,1,47,103,35,,,,,,,,,,,,,,,,,,,,,,,639.8233622000553,None,639.8233622000553,None,639.3230312999804,None,j,0.6871259000618011,639.8233622000553,None,,,,,,,,,,,,,g,001,2021_Jul_02_1456,toilet,2021.1.3,99.93963648857233,
180,180,-4,4,1.15,,,,,1,0,1,0,1,48,104,34,,,,,,,,,,,,,,,,,,,,,,,641.5345210999949,None,641.5345210999949,None,641.034180500079,None,j,0.6079382000025362,641.5345210999949,None,,,,,,,,,,,,,g,001,2021_Jul_02_1456,toilet,2021.1.3,99.93963648857233,
0,0,-4,4,0.94,,,,,1,0,1,0,1,49,105,1,,,,,,,,,,,,,,,,,,,,,,,643.1557179000229,None,643.1557179000229,None,642.6552788000554,None,f,0.5386426999466494,643.1557179000229,None,,,,,,,,,,,,,g,001,2021_Jul_02_1456,toilet,2021.1.3,99.93963648857233,
0,180,4,-4,1.15,,,,,1,0,1,0,1,50,106,27,,,,,,,,,,,,,,,,,,,,,,,644.6966985000763,None,644.6966985000763,None,644.1964127999963,None,f,0.7416504999855533,644.6966985000763,None,,,,,,,,,,,,,g,001,2021_Jul_02_1456,toilet,2021.1.3,99.93963648857233,
180,0,-4,4,1.0,,,,,1,0,1,0,1,51,107,45,,,,,,,,,,,,,,,,,,,,,,,646.4378422000445,None,646.4378422000445,None,645.937499599997,None,j,1.336586399935186,646.4378422000445,None,,,,,,,,,,,,,g,001,2021_Jul_02_1456,toilet,2021.1.3,99.93963648857233,
180,180,-4,4,0.97,,,,,1,0,1,0,1,52,108,30,,,,,,,,,,,,,,,,,,,,,,,648.7894384000683,None,648.7894384000683,None,648.2890955000184,None,j,1.849024900002405,648.7894384000683,None,,,,,,,,,,,,,g,001,2021_Jul_02_1456,toilet,2021.1.3,99.93963648857233,
180,0,4,-4,1.06,,,,,1,0,1,0,1,53,109,54,,,,,,,,,,,,,,,,,,,,,,,651.6514018999878,None,651.6514018999878,None,651.1511176000349,None,f,1.482958700042218,651.6514018999878,None,,,,,,,,,,,,,g,001,2021_Jul_02_1456,toilet,2021.1.3,99.93963648857233,
180,180,4,-4,1.03,,,,,1,0,1,0,1,54,110,39,,,,,,,,,,,,,,,,,,,,,,,654.1430636000587,None,654.1430636000587,None,653.6426993000787,None,f,1.2634312000591308,654.1430636000587,None,,,,,,,,,,,,,g,001,2021_Jul_02_1456,toilet,2021.1.3,99.93963648857233,
0,180,4,-4,1.03,,,,,1,0,1,0,1,55,111,25,,,,,,,,,,,,,,,,,,,,,,,656.4246032000519,None,656.4246032000519,None,655.9242656000424,None,j,1.3017421000404283,656.4246032000519,None,,,,,,,,,,,,,g,001,2021_Jul_02_1456,toilet,2021.1.3,99.93963648857233,
,,,,,,,,,1,0,1,0,,,,,,,,,,,,,,,,,,,,,,,,,,,,,,,,,,,,,657.7354815000435,None,space,5.894990100059658,657.7354815000435,None,,,,,,,g,001,2021_Jul_02_1456,toilet,2021.1.3,99.93963648857233,
180,0,4,-4,1.0,,,,,2,0,2,0,0,0,0,52,,,,,,,,,,,,,,,,,663.6495560000185,None,space,0.860926500055939,663.6495560000185,None,665.5208497000858,None,665.5208497000858,None,665.0204249999952,None,j,1.2455885000526905,665.5208497000858,None,,,,,,,,,,,,,g,001,2021_Jul_02_1456,toilet,2021.1.3,99.93963648857233,
180,180,-4,4,1.15,,,,,2,0,2,0,0,1,1,34,,,,,,,,,,,,,,,,,,,,,,,667.7722909000004,None,667.7722909000004,None,667.2719473000616,None,j,0.4822656000033021,667.7722909000004,None,,,,,,,,,,,,,g,001,2021_Jul_02_1456,toilet,2021.1.3,99.93963648857233,
0,180,4,-4,1.0,,,,,2,0,2,0,0,2,2,24,,,,,,,,,,,,,,,,,,,,,,,669.2633025000105,None,669.2633025000105,None,668.7629611000884,None,j,1.1190996000077575,669.2633025000105,None,,,,,,,,,,,,,g,001,2021_Jul_02_1456,toilet,2021.1.3,99.93963648857233,
180,0,-4,4,1.0,,,,,2,0,2,0,0,3,3,45,,,,,,,,,,,,,,,,,,,,,,,671.384741100017,None,671.384741100017,None,670.8843935000477,None,j,1.589729500003159,671.384741100017,None,,,,,,,,,,,,,g,001,2021_Jul_02_1456,toilet,2021.1.3,99.93963648857233,
180,0,4,-4,0.97,,,,,2,0,2,0,0,4,4,51,,,,,,,,,,,,,,,,,,,,,,,673.9865439999849,None,673.9865439999849,None,673.4862526999786,None,j,1.5477757999906316,673.9865439999849,None,,,,,,,,,,,,,g,001,2021_Jul_02_1456,toilet,2021.1.3,99.93963648857233,
180,180,4,-4,1.03,,,,,2,0,2,0,0,5,5,39,,,,,,,,,,,,,,,,,,,,,,,676.5382218000013,None,676.5382218000013,None,676.0378881000215,None,f,1.2843195999739692,676.5382218000013,None,,,,,,,,,,,,,g,001,2021_Jul_02_1456,toilet,2021.1.3,99.93963648857233,
0,180,4,-4,1.06,,,,,2,0,2,0,0,6,6,26,,,,,,,,,,,,,,,,,,,,,,,678.8497915000189,None,678.8497915000189,None,678.3494484000839,None,j,1.8047152999788523,678.8497915000189,None,,,,,,,,,,,,,g,001,2021_Jul_02_1456,toilet,2021.1.3,99.93963648857233,
180,0,4,-4,1.03,,,,,2,0,2,0,0,7,7,53,,,,,,,,,,,,,,,,,,,,,,,681.671702700085,None,681.671702700085,None,681.171447700006,None,f,1.0947030000388622,681.671702700085,None,,,,,,,,,,,,,g,001,2021_Jul_02_1456,toilet,2021.1.3,99.93963648857233,
0,180,4,-4,0.85,,,,,2,0,2,0,0,8,8,21,,,,,,,,,,,,,,,,,,,,,,,683.7731220000423,None,683.7731220000423,None,683.272785600042,None,j,0.6092742000473663,683.7731220000423,None,,,,,,,,,,,,,g,001,2021_Jul_02_1456,toilet,2021.1.3,99.93963648857233,
0,180,-4,4,0.85,,,,,2,0,2,0,0,9,9,14,,,,,,,,,,,,,,,,,,,,,,,685.3842193000019,None,685.3842193000019,None,684.8838758000638,None,f,0.6942929000360891,685.3842193000019,None,,,,,,,,,,,,,g,001,2021_Jul_02_1456,toilet,2021.1.3,99.93963648857233,
0,0,4,-4,0.85,,,,,2,0,2,0,0,10,10,7,,,,,,,,,,,,,,,,,,,,,,,687.1054749999894,None,687.1054749999894,None,686.6050385000417,None,j,0.556847200030461,687.1054749999894,None,,,,,,,,,,,,,g,001,2021_Jul_02_1456,toilet,2021.1.3,99.93963648857233,
0,180,-4,4,1.15,,,,,2,0,2,0,0,11,11,20,,,,,,,,,,,,,,,,,,,,,,,688.6665177000687,None,688.6665177000687,None,688.1661933000432,None,j,1.5558297999668866,688.6665177000687,None,,,,,,,,,,,,,g,001,2021_Jul_02_1456,toilet,2021.1.3,99.93963648857233,
0,0,-4,4,1.03,,,,,2,0,2,0,0,12,12,4,,,,,,,,,,,,,,,,,,,,,,,691.2281778000761,None,691.2281778000761,None,690.7278336000163,None,j,1.6185626999940723,691.2281778000761,None,,,,,,,,,,,,,g,001,2021_Jul_02_1456,toilet,2021.1.3,99.93963648857233,
180,180,-4,4,0.94,,,,,2,0,2,0,0,13,13,29,,,,,,,,,,,,,,,,,,,,,,,693.8599549999926,None,693.8599549999926,None,693.3596447000746,None,f,1.9784781000344083,693.8599549999926,None,,,,,,,,,,,,,g,001,2021_Jul_02_1456,toilet,2021.1.3,99.93963648857233,
180,180,-4,4,1.0,,,,,2,0,2,0,0,14,14,31,,,,,,,,,,,,,,,,,,,,,,,696.8519797000336,None,696.8519797000336,None,696.351730800001,None,j,0.6984035999048501,696.8519797000336,None,,,,,,,,,,,,,g,001,2021_Jul_02_1456,toilet,2021.1.3,99.93963648857233,
0,0,4,-4,1.0,,,,,2,0,2,0,0,15,15,10,,,,,,,,,,,,,,,,,,,,,,,698.5531332000392,None,698.5531332000392,None,698.0527938000159,None,f,1.2371955000562593,698.5531332000392,None,,,,,,,,,,,,,g,001,2021_Jul_02_1456,toilet,2021.1.3,99.93963648857233,
0,180,4,-4,1.03,,,,,2,0,2,0,0,16,16,25,,,,,,,,,,,,,,,,,,,,,,,700.7946528000757,None,700.7946528000757,None,700.2943127000472,None,j,1.0596620000433177,700.7946528000757,None,,,,,,,,,,,,,g,001,2021_Jul_02_1456,toilet,2021.1.3,99.93963648857233,
0,0,-4,4,0.94,,,,,2,0,2,0,0,17,17,1,,,,,,,,,,,,,,,,,,,,,,,702.8560627000406,None,702.8560627000406,None,702.3557744000573,None,f,0.7422908000880852,702.8560627000406,None,,,,,,,,,,,,,g,001,2021_Jul_02_1456,toilet,2021.1.3,99.93963648857233,
0,180,-4,4,0.94,,,,,2,0,2,0,0,18,18,15,,,,,,,,,,,,,,,,,,,,,,,704.6072297000792,None,704.6072297000792,None,704.1068972999929,None,f,1.1670541000785306,704.6072297000792,None,,,,,,,,,,,,,g,001,2021_Jul_02_1456,toilet,2021.1.3,99.93963648857233,
0,180,-4,4,1.0,,,,,2,0,2,0,0,19,19,17,,,,,,,,,,,,,,,,,,,,,,,706.7787026000442,None,706.7787026000442,None,706.2783655000385,None,f,0.9636965000536293,706.7787026000442,None,,,,,,,,,,,,,g,001,2021_Jul_02_1456,toilet,2021.1.3,99.93963648857233,
180,180,-4,4,0.97,,,,,2,0,2,0,0,20,20,30,,,,,,,,,,,,,,,,,,,,,,,708.7600574999815,None,708.7600574999815,None,708.2597084000008,None,f,1.84641370002646,708.7600574999815,None,,,,,,,,,,,,,g,001,2021_Jul_02_1456,toilet,2021.1.3,99.93963648857233,
0,180,4,-4,0.94,,,,,2,0,2,0,0,21,21,22,,,,,,,,,,,,,,,,,,,,,,,711.6219803000567,None,711.6219803000567,None,711.1216796999797,None,j,0.5523790000006557,711.6219803000567,None,,,,,,,,,,,,,g,001,2021_Jul_02_1456,toilet,2021.1.3,99.93963648857233,
180,180,4,-4,0.85,,,,,2,0,2,0,0,22,22,35,,,,,,,,,,,,,,,,,,,,,,,713.1830403000349,None,713.1830403000349,None,712.6827026000246,None,j,0.5913678999058902,713.1830403000349,None,,,,,,,,,,,,,g,001,2021_Jul_02_1456,toilet,2021.1.3,99.93963648857233,
180,180,4,-4,0.94,,,,,2,0,2,0,0,23,23,36,,,,,,,,,,,,,,,,,,,,,,,714.7841246000025,None,714.7841246000025,None,714.283793300041,None,j,0.6543792999582365,714.7841246000025,None,,,,,,,,,,,,,g,001,2021_Jul_02_1456,toilet,2021.1.3,99.93963648857233,
0,180,4,-4,0.97,,,,,2,0,2,0,0,24,24,23,,,,,,,,,,,,,,,,,,,,,,,716.4654036000138,None,716.4654036000138,None,715.9649238000857,None,j,1.4210016999859363,716.4654036000138,None,,,,,,,,,,,,,g,001,2021_Jul_02_1456,toilet,2021.1.3,99.93963648857233,
180,180,4,-4,1.15,,,,,2,0,2,0,0,25,25,41,,,,,,,,,,,,,,,,,,,,,,,718.8969408000121,None,718.8969408000121,None,718.3965749000199,None,f,0.5414603999815881,718.8969408000121,None,,,,,,,,,,,,,g,001,2021_Jul_02_1456,toilet,2021.1.3,99.93963648857233,
180,0,-4,4,0.94,,,,,2,0,2,0,0,26,26,43,,,,,,,,,,,,,,,,,,,,,,,720.4379646000452,None,720.4379646000452,None,719.937612800044,None,j,0.8245251000626013,720.4379646000452,None,,,,,,,,,,,,,g,001,2021_Jul_02_1456,toilet,2021.1.3,99.93963648857233,
0,0,-4,4,1.15,,,,,2,0,2,0,0,27,27,6,,,,,,,,,,,,,,,,,,,,,,,722.2892076000571,None,722.2892076000571,None,721.7888666000217,None,j,0.5091929000336677,722.2892076000571,None,,,,,,,,,,,,,g,001,2021_Jul_02_1456,toilet,2021.1.3,99.93963648857233,
180,180,4,-4,0.97,,,,,2,0,2,0,0,28,28,37,,,,,,,,,,,,,,,,,,,,,,,723.8102359999903,None,723.8102359999903,None,723.3099037000211,None,j,0.6041589999804273,723.8102359999903,None,,,,,,,,,,,,,g,001,2021_Jul_02_1456,toilet,2021.1.3,99.93963648857233,
180,0,-4,4,0.97,,,,,2,0,2,0,0,29,29,44,,,,,,,,,,,,,,,,,,,,,,,725.4214154999936,None,725.4214154999936,None,724.9210227000294,None,f,1.2488673999905586,725.4214154999936,None,,,,,,,,,,,,,g,001,2021_Jul_02_1456,toilet,2021.1.3,99.93963648857233,
0,0,-4,4,1.06,,,,,2,0,2,0,0,30,30,5,,,,,,,,,,,,,,,,,,,,,,,727.6728516999865,None,727.6728516999865,None,727.1725134000881,None,j,0.5335903000086546,727.6728516999865,None,,,,,,,,,,,,,g,001,2021_Jul_02_1456,toilet,2021.1.3,99.93963648857233,
0,180,-4,4,1.03,,,,,2,0,2,0,0,31,31,18,,,,,,,,,,,,,,,,,,,,,,,729.2138941000449,None,729.2138941000449,None,728.7135566000361,None,j,1.1525260000489652,729.2138941000449,None,,,,,,,,,,,,,g,001,2021_Jul_02_1456,toilet,2021.1.3,99.93963648857233,
180,180,4,-4,1.0,,,,,2,0,2,0,0,32,32,38,,,,,,,,,,,,,,,,,,,,,,,731.3754543000832,None,731.3754543000832,None,730.8750255000778,None,j,0.6069446000037715,731.3754543000832,None,,,,,,,,,,,,,g,001,2021_Jul_02_1456,toilet,2021.1.3,99.93963648857233,
180,180,-4,4,0.85,,,,,2,0,2,0,0,33,33,28,,,,,,,,,,,,,,,,,,,,,,,732.9964958999772,None,732.9964958999772,None,732.5062139000511,None,f,0.5057900999672711,732.9964958999772,None,,,,,,,,,,,,,g,001,2021_Jul_02_1456,toilet,2021.1.3,99.93963648857233,
0,180,-4,4,0.97,,,,,2,0,2,0,0,34,34,16,,,,,,,,,,,,,,,,,,,,,,,734.507481800043,None,734.507481800043,None,734.0071409000084,None,j,2.066988299950026,734.507481800043,None,,,,,,,,,,,,,g,001,2021_Jul_02_1456,toilet,2021.1.3,99.93963648857233,
180,0,-4,4,1.03,,,,,2,0,2,0,0,35,35,46,,,,,,,,,,,,,,,,,,,,,,,737.5895640000235,None,737.5895640000235,None,737.0892276000232,None,j,1.2408313999185339,737.5895640000235,None,,,,,,,,,,,,,g,001,2021_Jul_02_1456,toilet,2021.1.3,99.93963648857233,
0,180,4,-4,1.15,,,,,2,0,2,0,0,36,36,27,,,,,,,,,,,,,,,,,,,,,,,739.8411950999871,None,739.8411950999871,None,739.3407523999922,None,f,0.9891374000580981,739.8411950999871,None,,,,,,,,,,,,,g,001,2021_Jul_02_1456,toilet,2021.1.3,99.93963648857233,
0,0,4,-4,1.15,,,,,2,0,2,0,0,37,37,13,,,,,,,,,,,,,,,,,,,,,,,741.8424469000893,None,741.8424469000893,None,741.3421058000531,None,f,0.49193859996739775,741.8424469000893,None,,,,,,,,,,,,,g,001,2021_Jul_02_1456,toilet,2021.1.3,99.93963648857233,
0,180,-4,4,1.06,,,,,2,0,2,0,0,38,38,19,,,,,,,,,,,,,,,,,,,,,,,743.3434610000113,None,743.3434610000113,None,742.8431239000056,None,j,2.0309091999661177,743.3434610000113,None,,,,,,,,,,,,,g,001,2021_Jul_02_1456,toilet,2021.1.3,99.93963648857233,
180,180,-4,4,1.03,,,,,2,0,2,0,0,39,39,32,,,,,,,,,,,,,,,,,,,,,,,746.3855252000503,None,746.3855252000503,None,745.8852819000604,None,j,0.6370041000191122,746.3855252000503,None,,,,,,,,,,,,,g,001,2021_Jul_02_1456,toilet,2021.1.3,99.93963648857233,
180,180,4,-4,1.06,,,,,2,0,2,0,0,40,40,40,,,,,,,,,,,,,,,,,,,,,,,748.0466665000422,None,748.0466665000422,None,747.5464090000605,None,f,1.1355916000902653,748.0466665000422,None,,,,,,,,,,,,,g,001,2021_Jul_02_1456,toilet,2021.1.3,99.93963648857233,
180,0,-4,4,0.85,,,,,2,0,2,0,0,41,41,42,,,,,,,,,,,,,,,,,,,,,,,750.1881015000399,None,750.1881015000399,None,749.6877617000137,None,f,0.7541507999412715,750.1881015000399,None,,,,,,,,,,,,,g,001,2021_Jul_02_1456,toilet,2021.1.3,99.93963648857233,
180,180,-4,4,1.06,,,,,2,0,2,0,0,42,42,33,,,,,,,,,,,,,,,,,,,,,,,751.9492910000263,None,751.9492910000263,None,751.4489665000001,None,j,0.5290803000098094,751.9492910000263,None,,,,,,,,,,,,,g,001,2021_Jul_02_1456,toilet,2021.1.3,99.93963648857233,
180,0,4,-4,1.06,,,,,2,0,2,0,0,43,43,54,,,,,,,,,,,,,,,,,,,,,,,753.4904313000152,None,753.4904313000152,None,752.9899957000744,None,f,1.0998532000230625,753.4904313000152,None,,,,,,,,,,,,,g,001,2021_Jul_02_1456,toilet,2021.1.3,99.93963648857233,
0,0,-4,4,0.97,,,,,2,0,2,0,0,44,44,2,,,,,,,,,,,,,,,,,,,,,,,755.5917715000687,None,755.5917715000687,None,755.0915071000345,None,f,1.2227059000870213,755.5917715000687,None,,,,,,,,,,,,,g,001,2021_Jul_02_1456,toilet,2021.1.3,99.93963648857233,
0,0,4,-4,1.03,,,,,2,0,2,0,0,45,45,11,,,,,,,,,,,,,,,,,,,,,,,757.8232722000685,None,757.8232722000685,None,757.3229318000376,None,j,1.183089300058782,757.8232722000685,None,,,,,,,,,,,,,g,001,2021_Jul_02_1456,toilet,2021.1.3,99.93963648857233,
180,0,4,-4,0.94,,,,,2,0,2,0,0,46,46,50,,,,,,,,,,,,,,,,,,,,,,,760.0247569000348,None,760.0247569000348,None,759.5244188000215,None,j,0.6935387999983504,760.0247569000348,None,,,,,,,,,,,,,g,001,2021_Jul_02_1456,toilet,2021.1.3,99.93963648857233,
180,0,-4,4,1.15,,,,,2,0,2,0,0,47,47,48,,,,,,,,,,,,,,,,,,,,,,,761.7260003000265,None,761.7260003000265,None,761.2256577999797,None,j,0.6244239000370726,761.7260003000265,None,,,,,,,,,,,,,g,001,2021_Jul_02_1456,toilet,2021.1.3,99.93963648857233,
0,0,4,-4,0.97,,,,,2,0,2,0,0,48,48,9,,,,,,,,,,,,,,,,,,,,,,,763.3770327999955,None,763.3770327999955,None,762.8767090999754,None,j,1.2452048000413924,763.3770327999955,None,,,,,,,,,,,,,g,001,2021_Jul_02_1456,toilet,2021.1.3,99.93963648857233,
180,0,4,-4,0.85,,,,,2,0,2,0,0,49,49,49,,,,,,,,,,,,,,,,,,,,,,,765.6285581000848,None,765.6285581000848,None,765.1282169000478,None,j,0.7538428000407293,765.6285581000848,None,,,,,,,,,,,,,g,001,2021_Jul_02_1456,toilet,2021.1.3,99.93963648857233,
0,0,-4,4,1.0,,,,,2,0,2,0,0,50,50,3,,,,,,,,,,,,,,,,,,,,,,,767.3897456000559,None,767.3897456000559,None,766.8894085000502,None,j,1.3446718000341207,767.3897456000559,None,,,,,,,,,,,,,g,001,2021_Jul_02_1456,toilet,2021.1.3,99.93963648857233,
180,0,4,-4,1.15,,,,,2,0,2,0,0,51,51,55,,,,,,,,,,,,,,,,,,,,,,,769.7514426000416,None,769.7514426000416,None,769.2510669999756,None,f,0.7428820999339223,769.7514426000416,None,,,,,,,,,,,,,g,001,2021_Jul_02_1456,toilet,2021.1.3,99.93963648857233,
0,0,-4,4,0.85,,,,,2,0,2,0,0,52,52,0,,,,,,,,,,,,,,,,,,,,,,,771.50253050006,None,771.50253050006,None,771.002191800042,None,f,0.5277642000000924,771.50253050006,None,,,,,,,,,,,,,g,001,2021_Jul_02_1456,toilet,2021.1.3,99.93963648857233,
0,0,4,-4,1.06,,,,,2,0,2,0,0,53,53,12,,,,,,,,,,,,,,,,,,,,,,,773.0335655000526,None,773.0335655000526,None,772.5332436000463,None,f,0.9488079000730067,773.0335655000526,None,,,,,,,,,,,,,g,001,2021_Jul_02_1456,toilet,2021.1.3,99.93963648857233,
180,0,-4,4,1.06,,,,,2,0,2,0,0,54,54,47,,,,,,,,,,,,,,,,,,,,,,,774.9949026000686,None,774.9949026000686,None,774.4945571999997,None,j,1.2276237000478432,774.9949026000686,None,,,,,,,,,,,,,g,001,2021_Jul_02_1456,toilet,2021.1.3,99.93963648857233,
0,0,4,-4,0.94,,,,,2,0,2,0,0,55,55,8,,,,,,,,,,,,,,,,,,,,,,,777.2364957000827,None,777.2364957000827,None,776.7361734000733,None,j,0.6496687000617385,777.2364957000827,None,,,,,,,,,,,,,g,001,2021_Jul_02_1456,toilet,2021.1.3,99.93963648857233,
180,0,4,-4,0.97,,,,,2,0,2,0,1,0,56,51,,,,,,,,,,,,,,,,,,,,,,,778.8875316000776,None,778.8875316000776,None,778.3871908000438,None,j,0.9667558000655845,778.8875316000776,None,,,,,,,,,,,,,g,001,2021_Jul_02_1456,toilet,2021.1.3,99.93963648857233,
180,0,-4,4,0.85,,,,,2,0,2,0,1,1,57,42,,,,,,,,,,,,,,,,,,,,,,,780.8588641000679,None,780.8588641000679,None,780.3585340999998,None,f,0.8193601000821218,780.8588641000679,None,,,,,,,,,,,,,g,001,2021_Jul_02_1456,toilet,2021.1.3,99.93963648857233,
0,180,4,-4,1.03,,,,,2,0,2,0,1,2,58,25,,,,,,,,,,,,,,,,,,,,,,,782.6801962000318,None,782.6801962000318,None,782.1797606999753,None,j,2.966094100032933,782.6801962000318,None,,,,,,,,,,,,,g,001,2021_Jul_02_1456,toilet,2021.1.3,99.93963648857233,
0,180,-4,4,0.94,,,,,2,0,2,0,1,3,59,15,,,,,,,,,,,,,,,,,,,,,,,786.6527946999995,None,786.6527946999995,None,786.15245100006,None,f,0.9456281999591738,786.6527946999995,None,,,,,,,,,,,,,g,001,2021_Jul_02_1456,toilet,2021.1.3,99.93963648857233,
0,0,-4,4,1.0,,,,,2,0,2,0,1,4,60,3,,,,,,,,,,,,,,,,,,,,,,,788.6241266999859,None,788.6241266999859,None,788.1237827000441,None,j,1.2621837999904528,788.6241266999859,None,,,,,,,,,,,,,g,001,2021_Jul_02_1456,toilet,2021.1.3,99.93963648857233,
0,0,4,-4,1.03,,,,,2,0,2,0,1,5,61,11,,,,,,,,,,,,,,,,,,,,,,,790.8956650000764,None,790.8956650000764,None,790.3954167000484,None,j,2.8305469000479206,790.8956650000764,None,,,,,,,,,,,,,g,001,2021_Jul_02_1456,toilet,2021.1.3,99.93963648857233,
180,180,-4,4,1.0,,,,,2,0,2,0,1,6,62,31,,,,,,,,,,,,,,,,,,,,,,,794.7282597000012,None,794.7282597000012,None,794.2279176000739,None,j,0.6779582999879494,794.7282597000012,None,,,,,,,,,,,,,g,001,2021_Jul_02_1456,toilet,2021.1.3,99.93963648857233,
0,180,-4,4,1.15,,,,,2,0,2,0,1,7,63,20,,,,,,,,,,,,,,,,,,,,,,,796.4093972999835,None,796.4093972999835,None,795.9090603999794,None,j,0.5328629999421537,796.4093972999835,None,,,,,,,,,,,,,g,001,2021_Jul_02_1456,toilet,2021.1.3,99.93963648857233,
0,0,-4,4,1.06,,,,,2,0,2,0,1,8,64,5,,,,,,,,,,,,,,,,,,,,,,,797.9505354000721,None,797.9505354000721,None,797.4501033000415,None,j,1.0718392999842763,797.9505354000721,None,,,,,,,,,,,,,g,001,2021_Jul_02_1456,toilet,2021.1.3,99.93963648857233,
0,0,4,-4,1.0,,,,,2,0,2,0,1,9,65,10,,,,,,,,,,,,,,,,,,,,,,,800.0318512000376,None,800.0318512000376,None,799.5315188000677,None,j,2.238350899890065,800.0318512000376,None,,,,,,,,,,,,,g,001,2021_Jul_02_1456,toilet,2021.1.3,99.93963648857233,
0,0,-4,4,1.03,,,,,2,0,2,0,1,10,66,4,,,,,,,,,,,,,,,,,,,,,,,803.2740461999783,None,803.2740461999783,None,802.7737096999772,None,j,1.12414249998983,803.2740461999783,None,,,,,,,,,,,,,g,001,2021_Jul_02_1456,toilet,2021.1.3,99.93963648857233,
0,0,-4,4,0.85,,,,,2,0,2,0,1,11,67,0,,,,,,,,,,,,,,,,,,,,,,,805.4055874000769,None,805.4055874000769,None,804.9051498000044,None,f,0.576546199969016,805.4055874000769,None,,,,,,,,,,,,,g,001,2021_Jul_02_1456,toilet,2021.1.3,99.93963648857233,
0,0,4,-4,0.94,,,,,2,0,2,0,1,12,68,8,,,,,,,,,,,,,,,,,,,,,,,806.9865537000587,None,806.9865537000587,None,806.4863030000124,None,j,1.1076375000411645,806.9865537000587,None,,,,,,,,,,,,,g,001,2021_Jul_02_1456,toilet,2021.1.3,99.93963648857233,
180,180,4,-4,0.85,,,,,2,0,2,0,1,13,69,35,,,,,,,,,,,,,,,,,,,,,,,809.0979813000886,None,809.0979813000886,None,808.5976483999984,None,j,0.5803075999720022,809.0979813000886,None,,,,,,,,,,,,,g,001,2021_Jul_02_1456,toilet,2021.1.3,99.93963648857233,
180,0,-4,4,1.03,,,,,2,0,2,0,1,14,70,46,,,,,,,,,,,,,,,,,,,,,,,810.6790585999843,None,810.6790585999843,None,810.178719800082,None,j,1.6232751000206918,810.6790585999843,None,,,,,,,,,,,,,g,001,2021_Jul_02_1456,toilet,2021.1.3,99.93963648857233,
180,0,4,-4,1.15,,,,,2,0,2,0,1,15,71,55,,,,,,,,,,,,,,,,,,,,,,,813.3109202000778,None,813.3109202000778,None,812.8105043000542,None,f,0.6232307999162003,813.3109202000778,None,,,,,,,,,,,,,g,001,2021_Jul_02_1456,toilet,2021.1.3,99.93963648857233,
0,180,-4,4,1.0,,,,,2,0,2,0,1,16,72,17,,,,,,,,,,,,,,,,,,,,,,,814.9519522000337,None,814.9519522000337,None,814.451631700038,None,j,2.582273699925281,814.9519522000337,None,,,,,,,,,,,,,g,001,2021_Jul_02_1456,toilet,2021.1.3,99.93963648857233,
180,0,-4,4,1.0,,,,,2,0,2,0,1,17,73,45,,,,,,,,,,,,,,,,,,,,,,,818.5343805000884,None,818.5343805000884,None,818.034038700047,None,f,2.1678371999878436,818.5343805000884,None,,,,,,,,,,,,,g,001,2021_Jul_02_1456,toilet,2021.1.3,99.93963648857233,
180,0,4,-4,1.06,,,,,2,0,2,0,1,18,74,54,,,,,,,,,,,,,,,,,,,,,,,821.7066103999969,None,821.7066103999969,None,821.2061876000371,None,f,1.2517207000637427,821.7066103999969,None,,,,,,,,,,,,,g,001,2021_Jul_02_1456,toilet,2021.1.3,99.93963648857233,
180,0,4,-4,1.0,,,,,2,0,2,0,1,19,75,52,,,,,,,,,,,,,,,,,,,,,,,823.9580489000073,None,823.9580489000073,None,823.457715400029,None,f,1.4161295000230893,823.9580489000073,None,,,,,,,,,,,,,g,001,2021_Jul_02_1456,toilet,2021.1.3,99.93963648857233,
0,0,4,-4,0.85,,,,,2,0,2,0,1,20,76,7,,,,,,,,,,,,,,,,,,,,,,,826.3796956000151,None,826.3796956000151,None,825.8793695999775,None,j,0.5466596999904141,826.3796956000151,None,,,,,,,,,,,,,g,001,2021_Jul_02_1456,toilet,2021.1.3,99.93963648857233,
180,180,4,-4,1.03,,,,,2,0,2,0,1,21,77,39,,,,,,,,,,,,,,,,,,,,,,,827.9507557000034,None,827.9507557000034,None,827.4504156999756,None,f,0.7995025999844074,827.9507557000034,None,,,,,,,,,,,,,g,001,2021_Jul_02_1456,toilet,2021.1.3,99.93963648857233,
180,180,-4,4,1.06,,,,,2,0,2,0,1,22,78,33,,,,,,,,,,,,,,,,,,,,,,,829.7619765000418,None,829.7619765000418,None,829.2617229000898,None,j,1.100180699955672,829.7619765000418,None,,,,,,,,,,,,,g,001,2021_Jul_02_1456,toilet,2021.1.3,99.93963648857233,
0,180,4,-4,1.06,,,,,2,0,2,0,1,23,79,26,,,,,,,,,,,,,,,,,,,,,,,831.863407600089,None,831.863407600089,None,831.3630661000498,None,f,0.9028098999988288,831.863407600089,None,,,,,,,,,,,,,g,001,2021_Jul_02_1456,toilet,2021.1.3,99.93963648857233,
180,180,4,-4,0.94,,,,,2,0,2,0,1,24,80,36,,,,,,,,,,,,,,,,,,,,,,,833.7746967000421,None,833.7746967000421,None,833.2743605000433,None,j,0.5756154999835417,833.7746967000421,None,,,,,,,,,,,,,g,001,2021_Jul_02_1456,toilet,2021.1.3,99.93963648857233,
180,180,-4,4,0.94,,,,,2,0,2,0,1,25,81,29,,,,,,,,,,,,,,,,,,,,,,,835.3657771000871,None,835.3657771000871,None,834.86543850007,None,f,0.6484774999553338,835.3657771000871,None,,,,,,,,,,,,,g,001,2021_Jul_02_1456,toilet,2021.1.3,99.93963648857233,
180,0,4,-4,1.03,,,,,2,0,2,0,1,26,82,53,,,,,,,,,,,,,,,,,,,,,,,837.0269873000216,None,837.0269873000216,None,836.5265588000184,None,f,1.5312455999664962,837.0269873000216,None,,,,,,,,,,,,,g,001,2021_Jul_02_1456,toilet,2021.1.3,99.93963648857233,
0,0,4,-4,1.06,,,,,2,0,2,0,1,27,83,12,,,,,,,,,,,,,,,,,,,,,,,839.5586105000693,None,839.5586105000693,None,839.0582735000644,None,f,0.7436699999962002,839.5586105000693,None,,,,,,,,,,,,,g,001,2021_Jul_02_1456,toilet,2021.1.3,99.93963648857233,
180,0,-4,4,0.97,,,,,2,0,2,0,1,28,84,44,,,,,,,,,,,,,,,,,,,,,,,841.3097988000372,None,841.3097988000372,None,840.8094570999965,None,j,0.7844042999204248,841.3097988000372,None,,,,,,,,,,,,,g,001,2021_Jul_02_1456,toilet,2021.1.3,99.93963648857233,
180,180,4,-4,1.06,,,,,2,0,2,0,1,29,85,40,,,,,,,,,,,,,,,,,,,,,,,843.1010935000377,None,843.1010935000377,None,842.6006716000848,None,f,0.7691307000350207,843.1010935000377,None,,,,,,,,,,,,,g,001,2021_Jul_02_1456,toilet,2021.1.3,99.93963648857233,
180,180,-4,4,1.15,,,,,2,0,2,0,1,30,86,34,,,,,,,,,,,,,,,,,,,,,,,844.8823078999994,None,844.8823078999994,None,844.3818809000077,None,j,0.5719450999749824,844.8823078999994,None,,,,,,,,,,,,,g,001,2021_Jul_02_1456,toilet,2021.1.3,99.93963648857233,
0,180,4,-4,0.85,,,,,2,0,2,0,1,31,87,21,,,,,,,,,,,,,,,,,,,,,,,846.4632847000612,None,846.4632847000612,None,845.9629637000617,None,j,0.7029962000669912,846.4632847000612,None,,,,,,,,,,,,,g,001,2021_Jul_02_1456,toilet,2021.1.3,99.93963648857233,
0,0,4,-4,1.15,,,,,2,0,2,0,1,32,88,13,,,,,,,,,,,,,,,,,,,,,,,848.1744431999978,None,848.1744431999978,None,847.6741073000012,None,f,0.5918174999533221,848.1744431999978,None,,,,,,,,,,,,,g,001,2021_Jul_02_1456,toilet,2021.1.3,99.93963648857233,
0,0,-4,4,1.15,,,,,2,0,2,0,1,33,89,6,,,,,,,,,,,,,,,,,,,,,,,849.7755332000088,None,849.7755332000088,None,849.2751916000852,None,j,0.5108719000127167,849.7755332000088,None,,,,,,,,,,,,,g,001,2021_Jul_02_1456,toilet,2021.1.3,99.93963648857233,
180,0,4,-4,0.85,,,,,2,0,2,0,1,34,90,49,,,,,,,,,,,,,,,,,,,,,,,851.2966441999888,None,851.2966441999888,None,850.7962206000229,None,j,0.797580000013113,851.2966441999888,None,,,,,,,,,,,,,g,001,2021_Jul_02_1456,toilet,2021.1.3,99.93963648857233,
0,180,-4,4,1.06,,,,,2,0,2,0,1,35,91,19,,,,,,,,,,,,,,,,,,,,,,,853.10778760002,None,853.10778760002,None,852.6074547000462,None,j,0.7143503999104723,853.10778760002,None,,,,,,,,,,,,,g,001,2021_Jul_02_1456,toilet,2021.1.3,99.93963648857233,
0,180,-4,4,1.03,,,,,2,0,2,0,1,36,92,18,,,,,,,,,,,,,,,,,,,,,,,854.82895190001,None,854.82895190001,None,854.3286136999959,None,j,0.7531919999746606,854.82895190001,None,,,,,,,,,,,,,g,001,2021_Jul_02_1456,toilet,2021.1.3,99.93963648857233,
180,0,4,-4,0.94,,,,,2,0,2,0,1,37,93,50,,,,,,,,,,,,,,,,,,,,,,,856.5901450000238,None,856.5901450000238,None,856.0898046999937,None,j,0.7521590999094769,856.5901450000238,None,,,,,,,,,,,,,g,001,2021_Jul_02_1456,toilet,2021.1.3,99.93963648857233,
180,180,4,-4,1.0,,,,,2,0,2,0,1,38,94,38,,,,,,,,,,,,,,,,,,,,,,,858.3614439000376,None,858.3614439000376,None,857.8610038000625,None,f,1.444855000008829,858.3614439000376,None,,,,,,,,,,,,,g,001,2021_Jul_02_1456,toilet,2021.1.3,99.93963648857233,
180,180,4,-4,1.15,,,,,2,0,2,0,1,39,95,41,,,,,,,,,,,,,,,,,,,,,,,860.8230119000655,None,860.8230119000655,None,860.3226694000186,None,f,0.5992707000114024,860.8230119000655,None,,,,,,,,,,,,,g,001,2021_Jul_02_1456,toilet,2021.1.3,99.93963648857233,
0,180,4,-4,1.15,,,,,2,0,2,0,1,40,96,27,,,,,,,,,,,,,,,,,,,,,,,862.4240955000278,None,862.4240955000278,None,861.9237578000175,None,f,0.6142233998980373,862.4240955000278,None,,,,,,,,,,,,,g,001,2021_Jul_02_1456,toilet,2021.1.3,99.93963648857233,
180,180,-4,4,1.03,,,,,2,0,2,0,1,41,97,32,,,,,,,,,,,,,,,,,,,,,,,864.055200700066,None,864.055200700066,None,863.5548644000664,None,j,0.5029287000652403,864.055200700066,None,,,,,,,,,,,,,g,001,2021_Jul_02_1456,toilet,2021.1.3,99.93963648857233,
0,0,-4,4,0.94,,,,,2,0,2,0,1,42,98,1,,,,,,,,,,,,,,,,,,,,,,,865.5663123000413,None,865.5663123000413,None,865.0658836000366,None,f,0.592010400025174,865.5663123000413,None,,,,,,,,,,,,,g,001,2021_Jul_02_1456,toilet,2021.1.3,99.93963648857233,
0,180,4,-4,1.0,,,,,2,0,2,0,1,43,99,24,,,,,,,,,,,,,,,,,,,,,,,867.1674075999763,None,867.1674075999763,None,866.6670672000619,None,j,1.454688400030136,867.1674075999763,None,,,,,,,,,,,,,g,001,2021_Jul_02_1456,toilet,2021.1.3,99.93963648857233,
0,180,-4,4,0.97,,,,,2,0,2,0,1,44,100,16,,,,,,,,,,,,,,,,,,,,,,,869.628973599989,None,869.628973599989,None,869.1286754000466,None,f,0.9292726999847218,869.628973599989,None,,,,,,,,,,,,,g,001,2021_Jul_02_1456,toilet,2021.1.3,99.93963648857233,
180,180,-4,4,0.85,,,,,2,0,2,0,1,45,101,28,,,,,,,,,,,,,,,,,,,,,,,871.5702897000592,None,871.5702897000592,None,871.0699495000299,None,f,1.340192100033164,871.5702897000592,None,,,,,,,,,,,,,g,001,2021_Jul_02_1456,toilet,2021.1.3,99.93963648857233,
0,180,4,-4,0.94,,,,,2,0,2,0,1,46,102,22,,,,,,,,,,,,,,,,,,,,,,,873.9119581000414,None,873.9119581000414,None,873.4115395999979,None,j,0.5343816999811679,873.9119581000414,None,,,,,,,,,,,,,g,001,2021_Jul_02_1456,toilet,2021.1.3,99.93963648857233,
180,0,-4,4,1.06,,,,,2,0,2,0,1,47,103,47,,,,,,,,,,,,,,,,,,,,,,,875.4629229999846,None,875.4629229999846,None,874.9625851000892,None,j,0.5191981999669224,875.4629229999846,None,,,,,,,,,,,,,g,001,2021_Jul_02_1456,toilet,2021.1.3,99.93963648857233,
180,180,4,-4,0.97,,,,,2,0,2,0,1,48,104,37,,,,,,,,,,,,,,,,,,,,,,,876.9839580000844,None,876.9839580000844,None,876.4836205000756,None,f,1.0143517999676988,876.9839580000844,None,,,,,,,,,,,,,g,001,2021_Jul_02_1456,toilet,2021.1.3,99.93963648857233,
180,180,-4,4,0.97,,,,,2,0,2,0,1,49,105,30,,,,,,,,,,,,,,,,,,,,,,,879.0253376000328,None,879.0253376000328,None,878.5249983000103,None,f,0.812826499924995,879.0253376000328,None,,,,,,,,,,,,,g,001,2021_Jul_02_1456,toilet,2021.1.3,99.93963648857233,
0,0,-4,4,0.97,,,,,2,0,2,0,1,50,106,2,,,,,,,,,,,,,,,,,,,,,,,880.846666000085,None,880.846666000085,None,880.3463299000869,None,f,0.5915430000750348,880.846666000085,None,,,,,,,,,,,,,g,001,2021_Jul_02_1456,toilet,2021.1.3,99.93963648857233,
0,180,4,-4,0.97,,,,,2,0,2,0,1,51,107,23,,,,,,,,,,,,,,,,,,,,,,,882.44765560003,None,882.44765560003,None,881.9473961000331,None,j,0.8464741999050602,882.44765560003,None,,,,,,,,,,,,,g,001,2021_Jul_02_1456,toilet,2021.1.3,99.93963648857233,
0,0,4,-4,0.97,,,,,2,0,2,0,1,52,108,9,,,,,,,,,,,,,,,,,,,,,,,884.2989077999955,None,884.2989077999955,None,883.7985682000872,None,j,1.1711888000136241,884.2989077999955,None,,,,,,,,,,,,,g,001,2021_Jul_02_1456,toilet,2021.1.3,99.93963648857233,
180,0,-4,4,0.94,,,,,2,0,2,0,1,53,109,43,,,,,,,,,,,,,,,,,,,,,,,886.4703781000571,None,886.4703781000571,None,885.9700388000347,None,f,1.383889300050214,886.4703781000571,None,,,,,,,,,,,,,g,001,2021_Jul_02_1456,toilet,2021.1.3,99.93963648857233,
0,180,-4,4,0.85,,,,,2,0,2,0,1,54,110,14,,,,,,,,,,,,,,,,,,,,,,,888.8820253000595,None,888.8820253000595,None,888.381761000026,None,f,0.9560740999877453,888.8820253000595,None,,,,,,,,,,,,,g,001,2021_Jul_02_1456,toilet,2021.1.3,99.93963648857233,
180,0,-4,4,1.15,,,,,2,0,2,0,1,55,111,48,,,,,,,,,,,,,,,,,,,,,,,890.8433343999786,None,890.8433343999786,None,890.343000599998,None,j,0.6268736999481916,890.8433343999786,None,,,,,,,,,,,,,g,001,2021_Jul_02_1456,toilet,2021.1.3,99.93963648857233,
,,,,,,,,,2,0,2,0,,,,,,,,,,,,,,,,,,,,,,,,,,,,,,,,,,,,,891.483771600062,None,space,2.6423349000979215,891.483771600062,None,,,,,,,g,001,2021_Jul_02_1456,toilet,2021.1.3,99.93963648857233,
180,180,4,-4,0.85,,,,,3,0,3,0,0,0,0,35,,,,,,,,,,,,,,,,,894.1456105000107,None,space,1.0685065001016483,894.1456105000107,None,896.2270555000287,None,896.2270555000287,None,895.7267481000163,None,j,0.5232127000344917,896.2270555000287,None,,,,,,,,,,,,,g,001,2021_Jul_02_1456,toilet,2021.1.3,99.93963648857233,
0,0,4,-4,1.03,,,,,3,0,3,0,0,1,1,11,,,,,,,,,,,,,,,,,,,,,,,897.7680264000082,None,897.7680264000082,None,897.2676901000086,None,f,0.5660638000117615,897.7680264000082,None,,,,,,,,,,,,,g,001,2021_Jul_02_1456,toilet,2021.1.3,99.93963648857233,
180,180,4,-4,1.0,,,,,3,0,3,0,0,2,2,38,,,,,,,,,,,,,,,,,,,,,,,899.3390935000498,None,899.3390935000498,None,898.8387557000387,None,j,1.3311781000811607,899.3390935000498,None,,,,,,,,,,,,,g,001,2021_Jul_02_1456,toilet,2021.1.3,99.93963648857233,
0,180,-4,4,0.85,,,,,3,0,3,0,0,3,3,14,,,,,,,,,,,,,,,,,,,,,,,901.6806803999934,None,901.6806803999934,None,901.180333300028,None,f,0.46152140002232045,901.6806803999934,None,,,,,,,,,,,,,g,001,2021_Jul_02_1456,toilet,2021.1.3,99.93963648857233,
180,0,-4,4,1.15,,,,,3,0,3,0,0,4,4,48,,,,,,,,,,,,,,,,,,,,,,,903.1617590000387,None,903.1617590000387,None,902.6613813000731,None,j,0.5004142000107095,903.1617590000387,None,,,,,,,,,,,,,g,001,2021_Jul_02_1456,toilet,2021.1.3,99.93963648857233,
0,180,-4,4,1.03,,,,,3,0,3,0,0,5,5,18,,,,,,,,,,,,,,,,,,,,,,,904.6727011000039,None,904.6727011000039,None,904.1723824000219,None,j,1.2136393999680877,904.6727011000039,None,,,,,,,,,,,,,g,001,2021_Jul_02_1456,toilet,2021.1.3,99.93963648857233,
0,0,4,-4,1.0,,,,,3,0,3,0,0,6,6,10,,,,,,,,,,,,,,,,,,,,,,,906.8942143999739,None,906.8942143999739,None,906.393870000029,None,j,0.9119828999973834,906.8942143999739,None,,,,,,,,,,,,,g,001,2021_Jul_02_1456,toilet,2021.1.3,99.93963648857233,
0,0,4,-4,1.06,,,,,3,0,3,0,0,7,7,12,,,,,,,,,,,,,,,,,,,,,,,908.825513800024,None,908.825513800024,None,908.3252084000269,None,f,0.932719299918972,908.825513800024,None,,,,,,,,,,,,,g,001,2021_Jul_02_1456,toilet,2021.1.3,99.93963648857233,
180,0,-4,4,0.97,,,,,3,0,3,0,0,8,8,44,,,,,,,,,,,,,,,,,,,,,,,910.7869321000762,None,910.7869321000762,None,910.2864995000418,None,f,2.091213399893604,910.7869321000762,None,,,,,,,,,,,,,g,001,2021_Jul_02_1456,toilet,2021.1.3,99.93963648857233,
180,180,4,-4,0.94,,,,,3,0,3,0,0,9,9,36,,,,,,,,,,,,,,,,,,,,,,,913.8789371000603,None,913.8789371000603,None,913.3785981000401,None,j,0.5031589000718668,913.8789371000603,None,,,,,,,,,,,,,g,001,2021_Jul_02_1456,toilet,2021.1.3,99.93963648857233,
180,180,4,-4,1.03,,,,,3,0,3,0,0,10,10,39,,,,,,,,,,,,,,,,,,,,,,,915.3899621000746,None,915.3899621000746,None,914.8896197000286,None,f,1.1842904000077397,915.3899621000746,None,,,,,,,,,,,,,g,001,2021_Jul_02_1456,toilet,2021.1.3,99.93963648857233,
180,180,-4,4,0.85,,,,,3,0,3,0,0,11,11,28,,,,,,,,,,,,,,,,,,,,,,,917.5915329999989,None,917.5915329999989,None,917.0911105000414,None,f,0.5985250000376254,917.5915329999989,None,,,,,,,,,,,,,g,001,2021_Jul_02_1456,toilet,2021.1.3,99.93963648857233,
180,180,-4,4,1.06,,,,,3,0,3,0,0,12,12,33,,,,,,,,,,,,,,,,,,,,,,,919.1925313000102,None,919.1925313000102,None,918.6922851999989,None,j,0.7735704999649897,919.1925313000102,None,,,,,,,,,,,,,g,001,2021_Jul_02_1456,toilet,2021.1.3,99.93963648857233,
180,180,4,-4,1.15,,,,,3,0,3,0,0,13,13,41,,,,,,,,,,,,,,,,,,,,,,,920.9737397000426,None,920.9737397000426,None,920.4733996000141,None,f,1.2164935999317095,920.9737397000426,None,,,,,,,,,,,,,g,001,2021_Jul_02_1456,toilet,2021.1.3,99.93963648857233,
0,180,4,-4,0.85,,,,,3,0,3,0,0,14,14,21,,,,,,,,,,,,,,,,,,,,,,,923.2052469999762,None,923.2052469999762,None,922.7049258999759,None,j,2.185007799998857,923.2052469999762,None,,,,,,,,,,,,,g,001,2021_Jul_02_1456,toilet,2021.1.3,99.93963648857233,
0,0,4,-4,0.85,,,,,3,0,3,0,0,15,15,7,,,,,,,,,,,,,,,,,,,,,,,926.4074198000599,None,926.4074198000599,None,925.9071600000607,None,j,0.47068080003373325,926.4074198000599,None,,,,,,,,,,,,,g,001,2021_Jul_02_1456,toilet,2021.1.3,99.93963648857233,
180,0,4,-4,0.97,,,,,3,0,3,0,0,16,16,51,,,,,,,,,,,,,,,,,,,,,,,927.87841200002,None,927.87841200002,None,927.3780732000014,None,j,1.3038897999795154,927.87841200002,None,,,,,,,,,,,,,g,001,2021_Jul_02_1456,toilet,2021.1.3,99.93963648857233,
0,180,4,-4,1.0,,,,,3,0,3,0,0,17,17,24,,,,,,,,,,,,,,,,,,,,,,,930.1899788000155,None,930.1899788000155,None,929.6896392999915,None,j,0.9763247999362648,930.1899788000155,None,,,,,,,,,,,,,g,001,2021_Jul_02_1456,toilet,2021.1.3,99.93963648857233,
180,180,-4,4,1.15,,,,,3,0,3,0,0,18,18,34,,,,,,,,,,,,,,,,,,,,,,,932.1813287000405,None,932.1813287000405,None,931.6810051000211,None,j,0.4728976999176666,932.1813287000405,None,,,,,,,,,,,,,g,001,2021_Jul_02_1456,toilet,2021.1.3,99.93963648857233,
180,180,4,-4,0.97,,,,,3,0,3,0,0,19,19,37,,,,,,,,,,,,,,,,,,,,,,,933.6723711000523,None,933.6723711000523,None,933.1720382000785,None,j,1.6217156000202522,933.6723711000523,None,,,,,,,,,,,,,g,001,2021_Jul_02_1456,toilet,2021.1.3,99.93963648857233,
0,180,4,-4,1.15,,,,,3,0,3,0,0,20,20,27,,,,,,,,,,,,,,,,,,,,,,,936.2941143000498,None,936.2941143000498,None,935.7937720000045,None,f,0.7120277000358328,936.2941143000498,None,,,,,,,,,,,,,g,001,2021_Jul_02_1456,toilet,2021.1.3,99.93963648857233,
0,180,-4,4,0.94,,,,,3,0,3,0,0,21,21,15,,,,,,,,,,,,,,,,,,,,,,,938.0152782000368,None,938.0152782000368,None,937.5149394000182,None,f,1.1029946999624372,938.0152782000368,None,,,,,,,,,,,,,g,001,2021_Jul_02_1456,toilet,2021.1.3,99.93963648857233,
0,0,4,-4,0.97,,,,,3,0,3,0,0,22,22,9,,,,,,,,,,,,,,,,,,,,,,,940.1468058000319,None,940.1468058000319,None,939.6463836000767,None,j,0.6032623000210151,940.1468058000319,None,,,,,,,,,,,,,g,001,2021_Jul_02_1456,toilet,2021.1.3,99.93963648857233,
180,180,-4,4,0.97,,,,,3,0,3,0,0,23,23,30,,,,,,,,,,,,,,,,,,,,,,,941.7578105999855,None,941.7578105999855,None,941.2575563000282,None,f,0.8804327000398189,941.7578105999855,None,,,,,,,,,,,,,g,001,2021_Jul_02_1456,toilet,2021.1.3,99.93963648857233,
0,0,-4,4,1.06,,,,,3,0,3,0,0,24,24,5,,,,,,,,,,,,,,,,,,,,,,,943.6390970000066,None,943.6390970000066,None,943.1387471000198,None,j,1.19119049992878,943.6390970000066,None,,,,,,,,,,,,,g,001,2021_Jul_02_1456,toilet,2021.1.3,99.93963648857233,
180,0,-4,4,0.94,,,,,3,0,3,0,0,25,25,43,,,,,,,,,,,,,,,,,,,,,,,945.840580200078,None,945.840580200078,None,945.340238600038,None,f,2.413717200048268,945.840580200078,None,,,,,,,,,,,,,g,001,2021_Jul_02_1456,toilet,2021.1.3,99.93963648857233,
0,180,-4,4,1.15,,,,,3,0,3,0,0,26,26,20,,,,,,,,,,,,,,,,,,,,,,,949.2728763000341,None,949.2728763000341,None,948.772558900062,None,j,0.4691565999528393,949.2728763000341,None,,,,,,,,,,,,,g,001,2021_Jul_02_1456,toilet,2021.1.3,99.93963648857233,
180,0,-4,4,1.0,,,,,3,0,3,0,0,27,27,45,,,,,,,,,,,,,,,,,,,,,,,950.7439211000456,None,950.7439211000456,None,950.2435577000724,None,f,1.3822317000012845,950.7439211000456,None,,,,,,,,,,,,,g,001,2021_Jul_02_1456,toilet,2021.1.3,99.93963648857233,
180,0,4,-4,1.03,,,,,3,0,3,0,0,28,28,53,,,,,,,,,,,,,,,,,,,,,,,953.1355445000809,None,953.1355445000809,None,952.6351777000818,None,j,1.9825852999929339,953.1355445000809,None,,,,,,,,,,,,,g,001,2021_Jul_02_1456,toilet,2021.1.3,99.93963648857233,
180,180,4,-4,1.06,,,,,3,0,3,0,0,29,29,40,,,,,,,,,,,,,,,,,,,,,,,956.1175395000027,None,956.1175395000027,None,955.6273009000579,None,f,1.49648570001591,956.1175395000027,None,,,,,,,,,,,,,g,001,2021_Jul_02_1456,toilet,2021.1.3,99.93963648857233,
0,0,-4,4,1.15,,,,,3,0,3,0,0,30,30,6,,,,,,,,,,,,,,,,,,,,,,,958.6192287000595,None,958.6192287000595,None,958.1188914000522,None,j,0.41896170005202293,958.6192287000595,None,,,,,,,,,,,,,g,001,2021_Jul_02_1456,toilet,2021.1.3,99.93963648857233,
180,0,-4,4,0.85,,,,,3,0,3,0,0,31,31,42,,,,,,,,,,,,,,,,,,,,,,,960.0502150000539,None,960.0502150000539,None,959.5498608000344,None,f,0.5398965000640601,960.0502150000539,None,,,,,,,,,,,,,g,001,2021_Jul_02_1456,toilet,2021.1.3,99.93963648857233,
180,0,4,-4,1.06,,,,,3,0,3,0,0,32,32,54,,,,,,,,,,,,,,,,,,,,,,,961.6012467000401,None,961.6012467000401,None,961.1009922000812,None,j,0.7489059999352321,961.6012467000401,None,,,,,,,,,,,,,g,001,2021_Jul_02_1456,toilet,2021.1.3,99.93963648857233,
0,180,4,-4,0.94,,,,,3,0,3,0,0,33,33,22,,,,,,,,,,,,,,,,,,,,,,,963.3624762999825,None,963.3624762999825,None,962.862197700073,None,j,0.7635860999580473,963.3624762999825,None,,,,,,,,,,,,,g,001,2021_Jul_02_1456,toilet,2021.1.3,99.93963648857233,
180,0,-4,4,1.06,,,,,3,0,3,0,0,34,34,47,,,,,,,,,,,,,,,,,,,,,,,965.1336367999902,None,965.1336367999902,None,964.6333009999944,None,j,1.0404478999553248,965.1336367999902,None,,,,,,,,,,,,,g,001,2021_Jul_02_1456,toilet,2021.1.3,99.93963648857233,
0,180,-4,4,0.97,,,,,3,0,3,0,0,35,35,16,,,,,,,,,,,,,,,,,,,,,,,967.1850255000172,None,967.1850255000172,None,966.6846929000458,None,f,0.6530553000047803,967.1850255000172,None,,,,,,,,,,,,,g,001,2021_Jul_02_1456,toilet,2021.1.3,99.93963648857233,
180,0,4,-4,1.15,,,,,3,0,3,0,0,36,36,55,,,,,,,,,,,,,,,,,,,,,,,968.8462455000263,None,968.8462455000263,None,968.3458154000109,None,f,0.527808399987407,968.8462455000263,None,,,,,,,,,,,,,g,001,2021_Jul_02_1456,toilet,2021.1.3,99.93963648857233,
180,180,-4,4,1.0,,,,,3,0,3,0,0,37,37,31,,,,,,,,,,,,,,,,,,,,,,,970.3772595999762,None,970.3772595999762,None,969.8769310000353,None,j,0.9967929000267759,970.3772595999762,None,,,,,,,,,,,,,g,001,2021_Jul_02_1456,toilet,2021.1.3,99.93963648857233,
0,180,4,-4,1.03,,,,,3,0,3,0,0,38,38,25,,,,,,,,,,,,,,,,,,,,,,,972.3785498000216,None,972.3785498000216,None,971.8782064000843,None,j,1.2674675999442115,972.3785498000216,None,,,,,,,,,,,,,g,001,2021_Jul_02_1456,toilet,2021.1.3,99.93963648857233,
0,0,-4,4,1.03,,,,,3,0,3,0,0,39,39,4,,,,,,,,,,,,,,,,,,,,,,,974.6500895000063,None,974.6500895000063,None,974.1497462000698,None,j,0.7241339000174776,974.6500895000063,None,,,,,,,,,,,,,g,001,2021_Jul_02_1456,toilet,2021.1.3,99.93963648857233,
0,0,-4,4,0.94,,,,,3,0,3,0,0,40,40,1,,,,,,,,,,,,,,,,,,,,,,,976.3913452000124,None,976.3913452000124,None,975.89092730009,None,f,0.5667120000580326,976.3913452000124,None,,,,,,,,,,,,,g,001,2021_Jul_02_1456,toilet,2021.1.3,99.93963648857233,
0,0,-4,4,0.85,,,,,3,0,3,0,0,41,41,0,,,,,,,,,,,,,,,,,,,,,,,977.9623669000575,None,977.9623669000575,None,977.4620781000704,None,f,0.4356436999514699,977.9623669000575,None,,,,,,,,,,,,,g,001,2021_Jul_02_1456,toilet,2021.1.3,99.93963648857233,
0,0,4,-4,1.15,,,,,3,0,3,0,0,42,42,13,,,,,,,,,,,,,,,,,,,,,,,979.4033000000054,None,979.4033000000054,None,978.902961499989,None,f,0.5626962999813259,979.4033000000054,None,,,,,,,,,,,,,g,001,2021_Jul_02_1456,toilet,2021.1.3,99.93963648857233,
180,180,-4,4,1.03,,,,,3,0,3,0,0,43,43,32,,,,,,,,,,,,,,,,,,,,,,,980.9743666000431,None,980.9743666000431,None,980.4740267000161,None,j,0.6238549000117928,980.9743666000431,None,,,,,,,,,,,,,g,001,2021_Jul_02_1456,toilet,2021.1.3,99.93963648857233,
180,0,4,-4,0.85,,,,,3,0,3,0,0,44,44,49,,,,,,,,,,,,,,,,,,,,,,,982.6154898999957,None,982.6154898999957,None,982.1151440000394,None,j,0.5986272000009194,982.6154898999957,None,,,,,,,,,,,,,g,001,2021_Jul_02_1456,toilet,2021.1.3,99.93963648857233,
0,0,-4,4,0.97,,,,,3,0,3,0,0,45,45,2,,,,,,,,,,,,,,,,,,,,,,,984.2266718000174,None,984.2266718000174,None,983.7262319000438,None,f,0.9713320999871939,984.2266718000174,None,,,,,,,,,,,,,g,001,2021_Jul_02_1456,toilet,2021.1.3,99.93963648857233,
180,0,4,-4,1.0,,,,,3,0,3,0,0,46,46,52,,,,,,,,,,,,,,,,,,,,,,,986.1979028000496,None,986.1979028000496,None,985.6975648000371,None,j,1.4801051000831649,986.1979028000496,None,,,,,,,,,,,,,g,001,2021_Jul_02_1456,toilet,2021.1.3,99.93963648857233,
180,0,-4,4,1.03,,,,,3,0,3,0,0,47,47,46,,,,,,,,,,,,,,,,,,,,,,,988.689593099989,None,988.689593099989,None,988.189247500035,None,j,1.276605200022459,988.689593099989,None,,,,,,,,,,,,,g,001,2021_Jul_02_1456,toilet,2021.1.3,99.93963648857233,
0,180,-4,4,1.0,,,,,3,0,3,0,0,48,48,17,,,,,,,,,,,,,,,,,,,,,,,990.981138400035,None,990.981138400035,None,990.4808067000704,None,j,1.641019899980165,990.981138400035,None,,,,,,,,,,,,,g,001,2021_Jul_02_1456,toilet,2021.1.3,99.93963648857233,
0,0,4,-4,0.94,,,,,3,0,3,0,0,49,49,8,,,,,,,,,,,,,,,,,,,,,,,993.6329384000273,None,993.6329384000273,None,993.1325969999889,None,j,0.5571074999170378,993.6329384000273,None,,,,,,,,,,,,,g,001,2021_Jul_02_1456,toilet,2021.1.3,99.93963648857233,
