ori_st,ori_pr,xpos_st,xpos_pr,size,trials_3.thisRepN,trials_3.thisTrialN,trials_3.thisN,trials_3.thisIndex,trials_2.thisRepN,trials_2.thisTrialN,trials_2.thisN,trials_2.thisIndex,trials.thisRepN,trials.thisTrialN,trials.thisN,trials.thisIndex,wel_pra.started,wel_pra.stopped,resp_wel.keys,resp_wel.rt,resp_wel.started,resp_wel.stopped,standard_pra.started,standard_pra.stopped,prove_pra.started,prove_pra.stopped,fixation.started,fixation.stopped,resp_pra.keys,resp_pra.rt,resp_pra.started,resp_pra.stopped,instr.started,instr.stopped,key_resp_2.keys,key_resp_2.rt,key_resp_2.started,key_resp_2.stopped,standard.started,standard.stopped,probe.started,probe.stopped,text.started,text.stopped,resp.keys,resp.rt,resp.started,resp.stopped,text_2.started,text_2.stopped,key_resp.keys,key_resp.rt,key_resp.started,key_resp.stopped,text_3.started,text_3.stopped,key_resp_3.keys,key_resp_3.rt,key_resp_3.started,key_resp_3.stopped,participant,session,date,expName,psychopyVersion,frameRate,
,,,,,,,,,,,,,,,,,17.36660649999976,None,space,113.49012980004773,17.36660649999976,None,,,,,,,,,,,,,,,,,,,,,,,,,,,,,,,,,,,,,,,i,001,2021_Jul_05_1102,toilet,2021.1.3,99.92325895767131,
180,0,-4,4,1.15,0,0,0,14,,,,,,,,,,,,,,,131.90104899997823,None,131.90104899997823,None,131.4007302999962,None,j,1.899366400204599,131.90104899997823,None,,,,,,,,,,,,,,,,,,,,,,,,,,,,,i,001,2021_Jul_05_1102,toilet,2021.1.3,99.92325895767131,
180,180,-4,4,0.85,0,1,1,8,,,,,,,,,,,,,,,134.80298240017146,None,134.80298240017146,None,134.30264640017413,None,f,0.5175752001814544,134.80298240017146,None,,,,,,,,,,,,,,,,,,,,,,,,,,,,,i,001,2021_Jul_05_1102,toilet,2021.1.3,99.92325895767131,
0,180,4,-4,0.85,0,2,2,5,,,,,,,,,,,,,,,136.33402199996635,None,136.33402199996635,None,135.83367950003594,None,j,0.42648419993929565,136.33402199996635,None,,,,,,,,,,,,,,,,,,,,,,,,,,,,,i,001,2021_Jul_05_1102,toilet,2021.1.3,99.92325895767131,
180,180,-4,4,1.15,0,3,3,10,,,,,,,,,,,,,,,137.7650725999847,None,137.7650725999847,None,137.26464920002036,None,j,0.451480699935928,137.7650725999847,None,,,,,,,,,,,,,,,,,,,,,,,,,,,,,i,001,2021_Jul_05_1102,toilet,2021.1.3,99.92325895767131,
0,180,-4,4,1.15,0,4,4,6,,,,,,,,,,,,,,,139.22599219996482,None,139.22599219996482,None,138.7257354001049,None,j,0.38251729984767735,139.22599219996482,None,,,,,,,,,,,,,,,,,,,,,,,,,,,,,i,001,2021_Jul_05_1102,toilet,2021.1.3,99.92325895767131,
0,0,4,-4,1.15,0,5,5,3,,,,,,,,,,,,,,,140.6169235999696,None,140.6169235999696,None,140.11658180016093,None,f,0.4635894999373704,140.6169235999696,None,,,,,,,,,,,,,,,,,,,,,,,,,,,,,i,001,2021_Jul_05_1102,toilet,2021.1.3,99.92325895767131,
180,180,-4,4,0.85,0,6,6,9,,,,,,,,,,,,,,,142.0879226999823,None,142.0879226999823,None,141.58760810014792,None,f,0.38465060014277697,142.0879226999823,None,,,,,,,,,,,,,,,,,,,,,,,,,,,,,i,001,2021_Jul_05_1102,toilet,2021.1.3,99.92325895767131,
180,180,-4,4,1.15,0,7,7,11,,,,,,,,,,,,,,,143.49887240002863,None,143.49887240002863,None,142.99853450013325,None,j,0.36573030008003116,143.49887240002863,None,,,,,,,,,,,,,,,,,,,,,,,,,,,,,i,001,2021_Jul_05_1102,toilet,2021.1.3,99.92325895767131,
0,180,-4,4,0.85,0,8,8,4,,,,,,,,,,,,,,,144.88981960015371,None,144.88981960015371,None,144.3894828001503,None,f,0.5267453000415117,144.88981960015371,None,,,,,,,,,,,,,,,,,,,,,,,,,,,,,i,001,2021_Jul_05_1102,toilet,2021.1.3,99.92325895767131,
0,0,4,-4,0.85,0,9,9,1,,,,,,,,,,,,,,,146.44094590004534,None,146.44094590004534,None,145.94062720006332,None,j,0.3995636999607086,146.44094590004534,None,,,,,,,,,,,,,,,,,,,,,,,,,,,,,i,001,2021_Jul_05_1102,toilet,2021.1.3,99.92325895767131,
180,0,-4,4,1.15,0,10,10,15,,,,,,,,,,,,,,,147.85182420001365,None,147.85182420001365,None,147.35148940002546,None,j,0.47658710018731654,147.85182420001365,None,,,,,,,,,,,,,,,,,,,,,,,,,,,,,i,001,2021_Jul_05_1102,toilet,2021.1.3,99.92325895767131,
0,180,4,-4,1.15,0,11,11,7,,,,,,,,,,,,,,,149.3328323001042,None,149.3328323001042,None,148.8324913000688,None,f,0.49952780012972653,149.3328323001042,None,,,,,,,,,,,,,,,,,,,,,,,,,,,,,i,001,2021_Jul_05_1102,toilet,2021.1.3,99.92325895767131,
0,0,-4,4,0.85,0,12,12,0,,,,,,,,,,,,,,,150.84385289996862,None,150.84385289996862,None,150.343513000058,None,f,0.38050319999456406,150.84385289996862,None,,,,,,,,,,,,,,,,,,,,,,,,,,,,,i,001,2021_Jul_05_1102,toilet,2021.1.3,99.92325895767131,
180,0,-4,4,0.85,0,13,13,13,,,,,,,,,,,,,,,152.22488400014117,None,152.22488400014117,None,151.72445169999264,None,f,0.4075885000638664,152.22488400014117,None,,,,,,,,,,,,,,,,,,,,,,,,,,,,,i,001,2021_Jul_05_1102,toilet,2021.1.3,99.92325895767131,
180,0,-4,4,0.85,0,14,14,12,,,,,,,,,,,,,,,153.6458346999716,None,153.6458346999716,None,153.1454086001031,None,f,0.42660510004498065,153.6458346999716,None,,,,,,,,,,,,,,,,,,,,,,,,,,,,,i,001,2021_Jul_05_1102,toilet,2021.1.3,99.92325895767131,
0,0,-4,4,1.15,0,15,15,2,,,,,,,,,,,,,,,155.08675320004113,None,155.08675320004113,None,154.58638830017298,None,j,0.5056563999969512,155.08675320004113,None,,,,,,,,,,,,,,,,,,,,,,,,,,,,,i,001,2021_Jul_05_1102,toilet,2021.1.3,99.92325895767131,
0,180,-4,4,1.03,,,,,0,0,0,0,0,0,0,18,,,,,,,,,,,,,,,,,155.61708350013942,None,space,81.87936059990898,155.61708350013942,None,238.51325850002468,None,238.51325850002468,None,238.01291940012015,None,j,1.879161899909377,238.51325850002468,None,,,,,,,,,,,,,i,001,2021_Jul_05_1102,toilet,2021.1.3,99.92325895767131,
0,180,4,-4,1.03,,,,,0,0,0,0,0,1,1,25,,,,,,,,,,,,,,,,,,,,,,,241.40530690015294,None,241.40530690015294,None,240.90488300006837,None,f,0.47513509984128177,241.40530690015294,None,,,,,,,,,,,,,i,001,2021_Jul_05_1102,toilet,2021.1.3,99.92325895767131,
0,180,4,-4,0.97,,,,,0,0,0,0,0,2,2,23,,,,,,,,,,,,,,,,,,,,,,,242.89622560003772,None,242.89622560003772,None,242.3959725999739,None,f,0.424078700132668,242.89622560003772,None,,,,,,,,,,,,,i,001,2021_Jul_05_1102,toilet,2021.1.3,99.92325895767131,
0,0,-4,4,0.94,,,,,0,0,0,0,0,3,3,1,,,,,,,,,,,,,,,,,,,,,,,244.32719940016977,None,244.32719940016977,None,243.8268556999974,None,f,0.44914639997296035,244.32719940016977,None,,,,,,,,,,,,,i,001,2021_Jul_05_1102,toilet,2021.1.3,99.92325895767131,
0,0,-4,4,1.15,,,,,0,0,0,0,0,4,4,6,,,,,,,,,,,,,,,,,,,,,,,245.7781507000327,None,245.7781507000327,None,245.27783929998986,None,j,0.35825939988717437,245.7781507000327,None,,,,,,,,,,,,,i,001,2021_Jul_05_1102,toilet,2021.1.3,99.92325895767131,
180,180,4,-4,0.94,,,,,0,0,0,0,0,5,5,36,,,,,,,,,,,,,,,,,,,,,,,247.14911220013164,None,247.14911220013164,None,246.64877109997906,None,j,0.42727959994226694,247.14911220013164,None,,,,,,,,,,,,,i,001,2021_Jul_05_1102,toilet,2021.1.3,99.92325895767131,
180,180,-4,4,0.97,,,,,0,0,0,0,0,6,6,30,,,,,,,,,,,,,,,,,,,,,,,248.58014079998247,None,248.58014079998247,None,248.0797351000365,None,f,0.5802613999694586,248.58014079998247,None,,,,,,,,,,,,,i,001,2021_Jul_05_1102,toilet,2021.1.3,99.92325895767131,
180,180,4,-4,1.0,,,,,0,0,0,0,0,7,7,38,,,,,,,,,,,,,,,,,,,,,,,250.17115229996853,None,250.17115229996853,None,249.67083600000478,None,j,0.41316719981841743,250.17115229996853,None,,,,,,,,,,,,,i,001,2021_Jul_05_1102,toilet,2021.1.3,99.92325895767131,
180,180,-4,4,1.06,,,,,0,0,0,0,0,8,8,33,,,,,,,,,,,,,,,,,,,,,,,251.5921185000334,None,251.5921185000334,None,251.0917762001045,None,j,0.40015670005232096,251.5921185000334,None,,,,,,,,,,,,,i,001,2021_Jul_05_1102,toilet,2021.1.3,99.92325895767131,
180,0,-4,4,0.85,,,,,0,0,0,0,0,9,9,42,,,,,,,,,,,,,,,,,,,,,,,252.99306960008107,None,252.99306960008107,None,252.49272710015066,None,f,0.3273857000749558,252.99306960008107,None,,,,,,,,,,,,,i,001,2021_Jul_05_1102,toilet,2021.1.3,99.92325895767131,
180,0,4,-4,1.0,,,,,0,0,0,0,0,10,10,52,,,,,,,,,,,,,,,,,,,,,,,254.32398650003597,None,254.32398650003597,None,253.8236462001223,None,j,0.356451699975878,254.32398650003597,None,,,,,,,,,,,,,i,001,2021_Jul_05_1102,toilet,2021.1.3,99.92325895767131,
180,0,4,-4,1.03,,,,,0,0,0,0,0,11,11,53,,,,,,,,,,,,,,,,,,,,,,,255.7049059001729,None,255.7049059001729,None,255.20464170002379,None,j,0.3516830999869853,255.7049059001729,None,,,,,,,,,,,,,i,001,2021_Jul_05_1102,toilet,2021.1.3,99.92325895767131,
0,180,4,-4,1.0,,,,,0,0,0,0,0,12,12,24,,,,,,,,,,,,,,,,,,,,,,,257.0659201000817,None,257.0659201000817,None,256.5655680000782,None,j,0.334389999974519,257.0659201000817,None,,,,,,,,,,,,,i,001,2021_Jul_05_1102,toilet,2021.1.3,99.92325895767131,
0,0,-4,4,1.03,,,,,0,0,0,0,0,13,13,4,,,,,,,,,,,,,,,,,,,,,,,258.4167393001262,None,258.4167393001262,None,257.91640800004825,None,j,0.42366109997965395,258.4167393001262,None,,,,,,,,,,,,,i,001,2021_Jul_05_1102,toilet,2021.1.3,99.92325895767131,
180,0,-4,4,1.15,,,,,0,0,0,0,0,14,14,48,,,,,,,,,,,,,,,,,,,,,,,259.84771370003,None,259.84771370003,None,259.3473758001346,None,j,0.38465550006367266,259.84771370003,None,,,,,,,,,,,,,i,001,2021_Jul_05_1102,toilet,2021.1.3,99.92325895767131,
0,0,4,-4,1.15,,,,,0,0,0,0,0,15,15,13,,,,,,,,,,,,,,,,,,,,,,,261.2386515000835,None,261.2386515000835,None,260.7383118001744,None,f,0.36968969996087253,261.2386515000835,None,,,,,,,,,,,,,i,001,2021_Jul_05_1102,toilet,2021.1.3,99.92325895767131,
0,180,-4,4,0.97,,,,,0,0,0,0,0,16,16,16,,,,,,,,,,,,,,,,,,,,,,,262.6195929001551,None,262.6195929001551,None,262.1192487999797,None,j,0.4288192999083549,262.6195929001551,None,,,,,,,,,,,,,i,001,2021_Jul_05_1102,toilet,2021.1.3,99.92325895767131,
180,180,-4,4,0.94,,,,,0,0,0,0,0,17,17,29,,,,,,,,,,,,,,,,,,,,,,,264.0606488001067,None,264.0606488001067,None,263.5602317000739,None,f,0.363781499909237,264.0606488001067,None,,,,,,,,,,,,,i,001,2021_Jul_05_1102,toilet,2021.1.3,99.92325895767131,
0,180,-4,4,1.0,,,,,0,0,0,0,0,18,18,17,,,,,,,,,,,,,,,,,,,,,,,265.44150390010327,None,265.44150390010327,None,264.94116679998115,None,j,0.3587923999875784,265.44150390010327,None,,,,,,,,,,,,,i,001,2021_Jul_05_1102,toilet,2021.1.3,99.92325895767131,
180,180,-4,4,0.85,,,,,0,0,0,0,0,19,19,28,,,,,,,,,,,,,,,,,,,,,,,266.80242349999025,None,266.80242349999025,None,266.3020809001755,None,f,0.3578715000767261,266.80242349999025,None,,,,,,,,,,,,,i,001,2021_Jul_05_1102,toilet,2021.1.3,99.92325895767131,
180,0,-4,4,1.03,,,,,0,0,0,0,0,20,20,46,,,,,,,,,,,,,,,,,,,,,,,268.1633502000477,None,268.1633502000477,None,267.66300630010664,None,f,0.773037499981001,268.1633502000477,None,,,,,,,,,,,,,i,001,2021_Jul_05_1102,toilet,2021.1.3,99.92325895767131,
0,0,-4,4,1.06,,,,,0,0,0,0,0,21,21,5,,,,,,,,,,,,,,,,,,,,,,,269.95457429997623,None,269.95457429997623,None,269.45422010007314,None,j,0.3738277000375092,269.95457429997623,None,,,,,,,,,,,,,i,001,2021_Jul_05_1102,toilet,2021.1.3,99.92325895767131,
180,0,4,-4,1.06,,,,,0,0,0,0,0,22,22,54,,,,,,,,,,,,,,,,,,,,,,,271.3354949001223,None,271.3354949001223,None,270.8352353000082,None,f,0.7049336000345647,271.3354949001223,None,,,,,,,,,,,,,i,001,2021_Jul_05_1102,toilet,2021.1.3,99.92325895767131,
0,0,4,-4,0.85,,,,,0,0,0,0,0,23,23,7,,,,,,,,,,,,,,,,,,,,,,,273.0566635001451,None,273.0566635001451,None,272.55632410012186,None,j,0.3756194000598043,273.0566635001451,None,,,,,,,,,,,,,i,001,2021_Jul_05_1102,toilet,2021.1.3,99.92325895767131,
0,180,4,-4,0.85,,,,,0,0,0,0,0,24,24,21,,,,,,,,,,,,,,,,,,,,,,,274.43759900005534,None,274.43759900005534,None,273.9372581001371,None,j,0.4347280999645591,274.43759900005534,None,,,,,,,,,,,,,i,001,2021_Jul_05_1102,toilet,2021.1.3,99.92325895767131,
180,0,4,-4,0.97,,,,,0,0,0,0,0,25,25,51,,,,,,,,,,,,,,,,,,,,,,,275.87857159995474,None,275.87857159995474,None,275.37823400017805,None,j,0.337836500024423,275.87857159995474,None,,,,,,,,,,,,,i,001,2021_Jul_05_1102,toilet,2021.1.3,99.92325895767131,
0,180,-4,4,1.06,,,,,0,0,0,0,0,26,26,19,,,,,,,,,,,,,,,,,,,,,,,277.22952120006084,None,277.22952120006084,None,276.72915410017595,None,j,0.39489180012606084,277.22952120006084,None,,,,,,,,,,,,,i,001,2021_Jul_05_1102,toilet,2021.1.3,99.92325895767131,
180,180,-4,4,1.15,,,,,0,0,0,0,0,27,27,34,,,,,,,,,,,,,,,,,,,,,,,278.6404504000675,None,278.6404504000675,None,278.14020530018024,None,j,0.2959539000876248,278.6404504000675,None,,,,,,,,,,,,,i,001,2021_Jul_05_1102,toilet,2021.1.3,99.92325895767131,
180,180,4,-4,1.06,,,,,0,0,0,0,0,28,28,40,,,,,,,,,,,,,,,,,,,,,,,279.9513316999655,None,279.9513316999655,None,279.4510300999973,None,j,0.3289443999528885,279.9513316999655,None,,,,,,,,,,,,,i,001,2021_Jul_05_1102,toilet,2021.1.3,99.92325895767131,
180,180,4,-4,0.85,,,,,0,0,0,0,0,29,29,35,,,,,,,,,,,,,,,,,,,,,,,281.28223360003904,None,281.28223360003904,None,280.78189650014974,None,j,0.35803850018419325,281.28223360003904,None,,,,,,,,,,,,,i,001,2021_Jul_05_1102,toilet,2021.1.3,99.92325895767131,
180,180,-4,4,1.03,,,,,0,0,0,0,0,30,30,32,,,,,,,,,,,,,,,,,,,,,,,282.6431551000569,None,282.6431551000569,None,282.14281760016456,None,j,0.4853089000098407,282.6431551000569,None,,,,,,,,,,,,,i,001,2021_Jul_05_1102,toilet,2021.1.3,99.92325895767131,
0,0,-4,4,1.0,,,,,0,0,0,0,0,31,31,3,,,,,,,,,,,,,,,,,,,,,,,284.1441743001342,None,284.1441743001342,None,283.6538420000579,None,j,1.0321728999260813,284.1441743001342,None,,,,,,,,,,,,,i,001,2021_Jul_05_1102,toilet,2021.1.3,99.92325895767131,
180,180,4,-4,0.97,,,,,0,0,0,0,0,32,32,37,,,,,,,,,,,,,,,,,,,,,,,286.1855648001656,None,286.1855648001656,None,285.6853122001048,None,j,0.3827462000772357,286.1855648001656,None,,,,,,,,,,,,,i,001,2021_Jul_05_1102,toilet,2021.1.3,99.92325895767131,
180,0,-4,4,1.0,,,,,0,0,0,0,0,33,33,45,,,,,,,,,,,,,,,,,,,,,,,287.57649930007756,None,287.57649930007756,None,287.07616450008936,None,f,0.4638378999661654,287.57649930007756,None,,,,,,,,,,,,,i,001,2021_Jul_05_1102,toilet,2021.1.3,99.92325895767131,
180,0,-4,4,0.97,,,,,0,0,0,0,0,34,34,44,,,,,,,,,,,,,,,,,,,,,,,289.04749549995176,None,289.04749549995176,None,288.54715949995443,None,f,0.544889000011608,289.04749549995176,None,,,,,,,,,,,,,i,001,2021_Jul_05_1102,toilet,2021.1.3,99.92325895767131,
0,180,4,-4,1.15,,,,,0,0,0,0,0,35,35,27,,,,,,,,,,,,,,,,,,,,,,,290.6185639000032,None,290.6185639000032,None,290.11822720011696,None,f,0.38178809988312423,290.6185639000032,None,,,,,,,,,,,,,i,001,2021_Jul_05_1102,toilet,2021.1.3,99.92325895767131,
180,0,-4,4,0.94,,,,,0,0,0,0,0,36,36,43,,,,,,,,,,,,,,,,,,,,,,,292.01960830017924,None,292.01960830017924,None,291.5191699001007,None,f,0.3886273999232799,292.01960830017924,None,,,,,,,,,,,,,i,001,2021_Jul_05_1102,toilet,2021.1.3,99.92325895767131,
180,180,-4,4,1.0,,,,,0,0,0,0,0,37,37,31,,,,,,,,,,,,,,,,,,,,,,,293.41054890002124,None,293.41054890002124,None,292.91019630013034,None,f,1.0776922998484224,293.41054890002124,None,,,,,,,,,,,,,i,001,2021_Jul_05_1102,toilet,2021.1.3,99.92325895767131,
0,0,4,-4,0.97,,,,,0,0,0,0,0,38,38,9,,,,,,,,,,,,,,,,,,,,,,,295.4918623000849,None,295.4918623000849,None,294.99152450007387,None,j,0.4363871000241488,295.4918623000849,None,,,,,,,,,,,,,i,001,2021_Jul_05_1102,toilet,2021.1.3,99.92325895767131,
0,0,4,-4,1.0,,,,,0,0,0,0,0,39,39,10,,,,,,,,,,,,,,,,,,,,,,,296.93284420017153,None,296.93284420017153,None,296.4324982999824,None,j,0.8675603999290615,296.93284420017153,None,,,,,,,,,,,,,i,001,2021_Jul_05_1102,toilet,2021.1.3,99.92325895767131,
0,180,-4,4,0.94,,,,,0,0,0,0,0,40,40,15,,,,,,,,,,,,,,,,,,,,,,,298.8141169999726,None,298.8141169999726,None,298.31377420015633,None,f,0.7301345998421311,298.8141169999726,None,,,,,,,,,,,,,i,001,2021_Jul_05_1102,toilet,2021.1.3,99.92325895767131,
180,0,4,-4,0.85,,,,,0,0,0,0,0,41,41,49,,,,,,,,,,,,,,,,,,,,,,,300.54539049998857,None,300.54539049998857,None,300.0449493001215,None,j,0.47091849986463785,300.54539049998857,None,,,,,,,,,,,,,i,001,2021_Jul_05_1102,toilet,2021.1.3,99.92325895767131,
180,180,4,-4,1.03,,,,,0,0,0,0,0,42,42,39,,,,,,,,,,,,,,,,,,,,,,,302.02628880017437,None,302.02628880017437,None,301.52596960007213,None,f,0.4299914001021534,302.02628880017437,None,,,,,,,,,,,,,i,001,2021_Jul_05_1102,toilet,2021.1.3,99.92325895767131,
0,180,4,-4,0.94,,,,,0,0,0,0,0,43,43,22,,,,,,,,,,,,,,,,,,,,,,,303.4572564000264,None,303.4572564000264,None,302.9569495001342,None,j,0.35898880008608103,303.4572564000264,None,,,,,,,,,,,,,i,001,2021_Jul_05_1102,toilet,2021.1.3,99.92325895767131,
180,0,4,-4,0.94,,,,,0,0,0,0,0,44,44,50,,,,,,,,,,,,,,,,,,,,,,,304.81818130007014,None,304.81818130007014,None,304.3178459999617,None,j,0.5342539001721889,304.81818130007014,None,,,,,,,,,,,,,i,001,2021_Jul_05_1102,toilet,2021.1.3,99.92325895767131,
0,0,-4,4,0.85,,,,,0,0,0,0,0,45,45,0,,,,,,,,,,,,,,,,,,,,,,,306.3692354001105,None,306.3692354001105,None,305.86889160005376,None,f,0.48698780010454357,306.3692354001105,None,,,,,,,,,,,,,i,001,2021_Jul_05_1102,toilet,2021.1.3,99.92325895767131,
0,0,4,-4,1.03,,,,,0,0,0,0,0,46,46,11,,,,,,,,,,,,,,,,,,,,,,,307.86032360000536,None,307.86032360000536,None,307.3599874000065,None,f,0.6760588998440653,307.86032360000536,None,,,,,,,,,,,,,i,001,2021_Jul_05_1102,toilet,2021.1.3,99.92325895767131,
0,180,-4,4,1.15,,,,,0,0,0,0,0,47,47,20,,,,,,,,,,,,,,,,,,,,,,,309.55139260017313,None,309.55139260017313,None,309.05105070001446,None,j,0.45679090009070933,309.55139260017313,None,,,,,,,,,,,,,i,001,2021_Jul_05_1102,toilet,2021.1.3,99.92325895767131,
180,0,-4,4,1.06,,,,,0,0,0,0,0,48,48,47,,,,,,,,,,,,,,,,,,,,,,,311.01237939996645,None,311.01237939996645,None,310.5120407999493,None,j,0.7720078998245299,311.01237939996645,None,,,,,,,,,,,,,i,001,2021_Jul_05_1102,toilet,2021.1.3,99.92325895767131,
180,0,4,-4,1.15,,,,,0,0,0,0,0,49,49,55,,,,,,,,,,,,,,,,,,,,,,,312.7935830000788,None,312.7935830000788,None,312.29324440006167,None,f,0.39871879993006587,312.7935830000788,None,,,,,,,,,,,,,i,001,2021_Jul_05_1102,toilet,2021.1.3,99.92325895767131,
0,0,-4,4,0.97,,,,,0,0,0,0,0,50,50,2,,,,,,,,,,,,,,,,,,,,,,,314.20453970017843,None,314.20453970017843,None,313.7042050999589,None,j,0.4918174999766052,314.20453970017843,None,,,,,,,,,,,,,i,001,2021_Jul_05_1102,toilet,2021.1.3,99.92325895767131,
180,180,4,-4,1.15,,,,,0,0,0,0,0,51,51,41,,,,,,,,,,,,,,,,,,,,,,,315.70565060013905,None,315.70565060013905,None,315.2053090999834,None,f,0.3986325999721885,315.70565060013905,None,,,,,,,,,,,,,i,001,2021_Jul_05_1102,toilet,2021.1.3,99.92325895767131,
0,0,4,-4,1.06,,,,,0,0,0,0,0,52,52,12,,,,,,,,,,,,,,,,,,,,,,,317.1165161000099,None,317.1165161000099,None,316.6161724999547,None,f,0.683770899893716,317.1165161000099,None,,,,,,,,,,,,,i,001,2021_Jul_05_1102,toilet,2021.1.3,99.92325895767131,
0,0,4,-4,0.94,,,,,0,0,0,0,0,53,53,8,,,,,,,,,,,,,,,,,,,,,,,318.80766020016745,None,318.80766020016745,None,318.307324500056,None,j,0.3846980999223888,318.80766020016745,None,,,,,,,,,,,,,i,001,2021_Jul_05_1102,toilet,2021.1.3,99.92325895767131,
0,180,4,-4,1.06,,,,,0,0,0,0,0,54,54,26,,,,,,,,,,,,,,,,,,,,,,,320.21861300012097,None,320.21861300012097,None,319.718280200148,None,f,0.3337872000411153,320.21861300012097,None,,,,,,,,,,,,,i,001,2021_Jul_05_1102,toilet,2021.1.3,99.92325895767131,
0,180,-4,4,0.85,,,,,0,0,0,0,0,55,55,14,,,,,,,,,,,,,,,,,,,,,,,321.5695705001708,None,321.5695705001708,None,321.06919130007736,None,f,0.37468970008194447,321.5695705001708,None,,,,,,,,,,,,,i,001,2021_Jul_05_1102,toilet,2021.1.3,99.92325895767131,
180,0,-4,4,1.06,,,,,0,0,0,0,1,0,56,47,,,,,,,,,,,,,,,,,,,,,,,322.9505406001117,None,322.9505406001117,None,322.4502211001236,None,j,0.4018582000862807,322.9505406001117,None,,,,,,,,,,,,,i,001,2021_Jul_05_1102,toilet,2021.1.3,99.92325895767131,
0,180,-4,4,0.97,,,,,0,0,0,0,1,1,57,16,,,,,,,,,,,,,,,,,,,,,,,324.3714316000696,None,324.3714316000696,None,323.87108590011485,None,j,0.8367696001660079,324.3714316000696,None,,,,,,,,,,,,,i,001,2021_Jul_05_1102,toilet,2021.1.3,99.92325895767131,
0,180,-4,4,1.0,,,,,0,0,0,0,1,2,58,17,,,,,,,,,,,,,,,,,,,,,,,326.21270600007847,None,326.21270600007847,None,325.71233740006573,None,j,0.6757193000521511,326.21270600007847,None,,,,,,,,,,,,,i,001,2021_Jul_05_1102,toilet,2021.1.3,99.92325895767131,
180,180,-4,4,1.15,,,,,0,0,0,0,1,3,59,34,,,,,,,,,,,,,,,,,,,,,,,327.9038265000563,None,327.9038265000563,None,327.4034864001442,None,j,0.3924445000011474,327.9038265000563,None,,,,,,,,,,,,,i,001,2021_Jul_05_1102,toilet,2021.1.3,99.92325895767131,
0,180,4,-4,0.97,,,,,0,0,0,0,1,4,60,23,,,,,,,,,,,,,,,,,,,,,,,329.31477960012853,None,329.31477960012853,None,328.81451559998095,None,f,0.3736154001671821,329.31477960012853,None,,,,,,,,,,,,,i,001,2021_Jul_05_1102,toilet,2021.1.3,99.92325895767131,
180,0,-4,4,0.97,,,,,0,0,0,0,1,5,61,44,,,,,,,,,,,,,,,,,,,,,,,330.71574630006216,None,330.71574630006216,None,330.2154838000424,None,f,0.4446719998959452,330.71574630006216,None,,,,,,,,,,,,,i,001,2021_Jul_05_1102,toilet,2021.1.3,99.92325895767131,
180,180,4,-4,0.94,,,,,0,0,0,0,1,6,62,36,,,,,,,,,,,,,,,,,,,,,,,332.17671880009584,None,332.17671880009584,None,331.6763814999722,None,j,0.343590599950403,332.17671880009584,None,,,,,,,,,,,,,i,001,2021_Jul_05_1102,toilet,2021.1.3,99.92325895767131,
0,0,-4,4,1.03,,,,,0,0,0,0,1,7,63,4,,,,,,,,,,,,,,,,,,,,,,,333.5276363999583,None,333.5276363999583,None,333.02729210001417,None,j,0.5447273999452591,333.5276363999583,None,,,,,,,,,,,,,i,001,2021_Jul_05_1102,toilet,2021.1.3,99.92325895767131,
180,0,4,-4,1.15,,,,,0,0,0,0,1,8,64,55,,,,,,,,,,,,,,,,,,,,,,,335.08869160013273,None,335.08869160013273,None,334.5883512001019,None,f,0.5676717001479119,335.08869160013273,None,,,,,,,,,,,,,i,001,2021_Jul_05_1102,toilet,2021.1.3,99.92325895767131,
180,0,-4,4,0.85,,,,,0,0,0,0,1,9,65,42,,,,,,,,,,,,,,,,,,,,,,,336.66984930005856,None,336.66984930005856,None,336.16945419996046,None,f,0.5224289000034332,336.66984930005856,None,,,,,,,,,,,,,i,001,2021_Jul_05_1102,toilet,2021.1.3,99.92325895767131,
0,0,-4,4,0.85,,,,,0,0,0,0,1,10,66,0,,,,,,,,,,,,,,,,,,,,,,,338.2008414999582,None,338.2008414999582,None,337.70055099995807,None,f,0.4633597999345511,338.2008414999582,None,,,,,,,,,,,,,i,001,2021_Jul_05_1102,toilet,2021.1.3,99.92325895767131,
0,0,-4,4,1.06,,,,,0,0,0,0,1,11,67,5,,,,,,,,,,,,,,,,,,,,,,,339.6718007000163,None,339.6718007000163,None,339.1714588999748,None,j,0.48042940022423863,339.6718007000163,None,,,,,,,,,,,,,i,001,2021_Jul_05_1102,toilet,2021.1.3,99.92325895767131,
180,180,4,-4,0.85,,,,,0,0,0,0,1,12,68,35,,,,,,,,,,,,,,,,,,,,,,,341.15280060004443,None,341.15280060004443,None,340.6524621001445,None,j,0.34355150000192225,341.15280060004443,None,,,,,,,,,,,,,i,001,2021_Jul_05_1102,toilet,2021.1.3,99.92325895767131,
0,180,-4,4,1.15,,,,,0,0,0,0,1,13,69,20,,,,,,,,,,,,,,,,,,,,,,,342.51372350007296,None,342.51372350007296,None,342.0133871000726,None,j,0.34258490009233356,342.51372350007296,None,,,,,,,,,,,,,i,001,2021_Jul_05_1102,toilet,2021.1.3,99.92325895767131,
180,180,4,-4,1.06,,,,,0,0,0,0,1,14,70,40,,,,,,,,,,,,,,,,,,,,,,,343.87472279998474,None,343.87472279998474,None,343.37430569995195,None,f,0.4694880999159068,343.87472279998474,None,,,,,,,,,,,,,i,001,2021_Jul_05_1102,toilet,2021.1.3,99.92325895767131,
0,0,4,-4,0.85,,,,,0,0,0,0,1,15,71,7,,,,,,,,,,,,,,,,,,,,,,,345.345730900066,None,345.345730900066,None,344.8453942001797,None,j,0.3746046000160277,345.345730900066,None,,,,,,,,,,,,,i,001,2021_Jul_05_1102,toilet,2021.1.3,99.92325895767131,
0,0,4,-4,1.06,,,,,0,0,0,0,1,16,72,12,,,,,,,,,,,,,,,,,,,,,,,346.73658260004595,None,346.73658260004595,None,346.2362417001277,None,f,0.5196287999860942,346.73658260004595,None,,,,,,,,,,,,,i,001,2021_Jul_05_1102,toilet,2021.1.3,99.92325895767131,
180,0,4,-4,1.06,,,,,0,0,0,0,1,17,73,54,,,,,,,,,,,,,,,,,,,,,,,348.25761010008864,None,348.25761010008864,None,347.7572774,None,j,0.6946855001151562,348.25761010008864,None,,,,,,,,,,,,,i,001,2021_Jul_05_1102,toilet,2021.1.3,99.92325895767131,
0,180,-4,4,0.94,,,,,0,0,0,0,1,18,74,15,,,,,,,,,,,,,,,,,,,,,,,349.9587699000258,None,349.9587699000258,None,349.4584238999523,None,j,0.6575759002007544,349.9587699000258,None,,,,,,,,,,,,,i,001,2021_Jul_05_1102,toilet,2021.1.3,99.92325895767131,
180,0,4,-4,0.94,,,,,0,0,0,0,1,19,75,50,,,,,,,,,,,,,,,,,,,,,,,351.6298975001555,None,351.6298975001555,None,351.12964579998516,None,j,0.41029269993305206,351.6298975001555,None,,,,,,,,,,,,,i,001,2021_Jul_05_1102,toilet,2021.1.3,99.92325895767131,
0,0,4,-4,1.15,,,,,0,0,0,0,1,20,76,13,,,,,,,,,,,,,,,,,,,,,,,353.04089060006663,None,353.04089060006663,None,352.54060910013504,None,f,0.42338910000398755,353.04089060006663,None,,,,,,,,,,,,,i,001,2021_Jul_05_1102,toilet,2021.1.3,99.92325895767131,
0,0,-4,4,0.97,,,,,0,0,0,0,1,21,77,2,,,,,,,,,,,,,,,,,,,,,,,354.4718274001498,None,354.4718274001498,None,353.9714852999896,None,f,0.7363660000264645,354.4718274001498,None,,,,,,,,,,,,,i,001,2021_Jul_05_1102,toilet,2021.1.3,99.92325895767131,
180,180,-4,4,1.03,,,,,0,0,0,0,1,22,78,32,,,,,,,,,,,,,,,,,,,,,,,356.2130053001456,None,356.2130053001456,None,355.7126686000265,None,j,0.5474415000062436,356.2130053001456,None,,,,,,,,,,,,,i,001,2021_Jul_05_1102,toilet,2021.1.3,99.92325895767131,
180,0,4,-4,0.85,,,,,0,0,0,0,1,23,79,49,,,,,,,,,,,,,,,,,,,,,,,357.7740619000979,None,357.7740619000979,None,357.27372219995596,None,j,0.4581009999383241,357.7740619000979,None,,,,,,,,,,,,,i,001,2021_Jul_05_1102,toilet,2021.1.3,99.92325895767131,
180,0,4,-4,1.0,,,,,0,0,0,0,1,24,80,52,,,,,,,,,,,,,,,,,,,,,,,359.235130000161,None,359.235130000161,None,358.7347101001069,None,j,0.5811517999973148,359.235130000161,None,,,,,,,,,,,,,i,001,2021_Jul_05_1102,toilet,2021.1.3,99.92325895767131,
180,180,-4,4,0.94,,,,,0,0,0,0,1,25,81,29,,,,,,,,,,,,,,,,,,,,,,,360.82612730003893,None,360.82612730003893,None,360.3258708000649,None,f,0.7821390000171959,360.82612730003893,None,,,,,,,,,,,,,i,001,2021_Jul_05_1102,toilet,2021.1.3,99.92325895767131,
180,180,4,-4,1.15,,,,,0,0,0,0,1,26,82,41,,,,,,,,,,,,,,,,,,,,,,,362.6173435000237,None,362.6173435000237,None,362.11700129997917,None,f,0.4468840002082288,362.6173435000237,None,,,,,,,,,,,,,i,001,2021_Jul_05_1102,toilet,2021.1.3,99.92325895767131,
0,180,4,-4,1.0,,,,,0,0,0,0,1,27,83,24,,,,,,,,,,,,,,,,,,,,,,,364.0683252001181,None,364.0683252001181,None,363.5679864999838,None,f,0.5800326999742538,364.0683252001181,None,,,,,,,,,,,,,i,001,2021_Jul_05_1102,toilet,2021.1.3,99.92325895767131,
0,0,4,-4,1.03,,,,,0,0,0,0,1,28,84,11,,,,,,,,,,,,,,,,,,,,,,,365.6594792001415,None,365.6594792001415,None,365.1590635001194,None,f,0.716851299861446,365.6594792001415,None,,,,,,,,,,,,,i,001,2021_Jul_05_1102,toilet,2021.1.3,99.92325895767131,
180,180,-4,4,1.06,,,,,0,0,0,0,1,29,85,33,,,,,,,,,,,,,,,,,,,,,,,367.3907022001222,None,367.3907022001222,None,366.8902757000178,None,j,0.7774706999771297,367.3907022001222,None,,,,,,,,,,,,,i,001,2021_Jul_05_1102,toilet,2021.1.3,99.92325895767131,
180,0,-4,4,1.0,,,,,0,0,0,0,1,30,86,45,,,,,,,,,,,,,,,,,,,,,,,369.17178099998273,None,369.17178099998273,None,368.67144650011323,None,f,0.5643881000578403,369.17178099998273,None,,,,,,,,,,,,,i,001,2021_Jul_05_1102,toilet,2021.1.3,99.92325895767131,
180,0,4,-4,1.03,,,,,0,0,0,0,1,31,87,53,,,,,,,,,,,,,,,,,,,,,,,370.7428452000022,None,370.7428452000022,None,370.24251030012965,None,j,1.0734326001256704,370.7428452000022,None,,,,,,,,,,,,,i,001,2021_Jul_05_1102,toilet,2021.1.3,99.92325895767131,
0,180,4,-4,0.85,,,,,0,0,0,0,1,32,88,21,,,,,,,,,,,,,,,,,,,,,,,372.83430019998923,None,372.83430019998923,None,372.3339234001469,None,j,0.4860249999910593,372.83430019998923,None,,,,,,,,,,,,,i,001,2021_Jul_05_1102,toilet,2021.1.3,99.92325895767131,
180,180,-4,4,0.97,,,,,0,0,0,0,1,33,89,30,,,,,,,,,,,,,,,,,,,,,,,374.34529320010915,None,374.34529320010915,None,373.8449495001696,None,f,0.3669302000198513,374.34529320010915,None,,,,,,,,,,,,,i,001,2021_Jul_05_1102,toilet,2021.1.3,99.92325895767131,
180,180,4,-4,0.97,,,,,0,0,0,0,1,34,90,37,,,,,,,,,,,,,,,,,,,,,,,375.7262234000955,None,375.7262234000955,None,375.2259758999571,None,j,0.7620292999781668,375.7262234000955,None,,,,,,,,,,,,,i,001,2021_Jul_05_1102,toilet,2021.1.3,99.92325895767131,
180,180,4,-4,1.03,,,,,0,0,0,0,1,35,91,39,,,,,,,,,,,,,,,,,,,,,,,377.49742630007677,None,377.49742630007677,None,376.9970844001509,None,f,0.5428114000242203,377.49742630007677,None,,,,,,,,,,,,,i,001,2021_Jul_05_1102,toilet,2021.1.3,99.92325895767131,
0,0,4,-4,0.94,,,,,0,0,0,0,1,36,92,8,,,,,,,,,,,,,,,,,,,,,,,379.04847900010645,None,379.04847900010645,None,378.5481342000421,None,j,0.7996828998439014,379.04847900010645,None,,,,,,,,,,,,,i,001,2021_Jul_05_1102,toilet,2021.1.3,99.92325895767131,
180,180,-4,4,0.85,,,,,0,0,0,0,1,37,93,28,,,,,,,,,,,,,,,,,,,,,,,380.8497693000827,None,380.8497693000827,None,380.349353000056,None,f,0.4544064998626709,380.8497693000827,None,,,,,,,,,,,,,i,001,2021_Jul_05_1102,toilet,2021.1.3,99.92325895767131,
180,0,-4,4,0.94,,,,,0,0,0,0,1,38,94,43,,,,,,,,,,,,,,,,,,,,,,,382.3106925999746,None,382.3106925999746,None,381.8104424001649,None,f,0.7854379999917,382.3106925999746,None,,,,,,,,,,,,,i,001,2021_Jul_05_1102,toilet,2021.1.3,99.92325895767131,
180,180,4,-4,1.0,,,,,0,0,0,0,1,39,95,38,,,,,,,,,,,,,,,,,,,,,,,384.10189509997144,None,384.10189509997144,None,383.6015594000928,None,j,0.6262465000618249,384.10189509997144,None,,,,,,,,,,,,,i,001,2021_Jul_05_1102,toilet,2021.1.3,99.92325895767131,
0,0,4,-4,1.0,,,,,0,0,0,0,1,40,96,10,,,,,,,,,,,,,,,,,,,,,,,385.7330017001368,None,385.7330017001368,None,385.23266110010445,None,j,0.48325090017169714,385.7330017001368,None,,,,,,,,,,,,,i,001,2021_Jul_05_1102,toilet,2021.1.3,99.92325895767131,
0,0,-4,4,0.94,,,,,0,0,0,0,1,41,97,1,,,,,,,,,,,,,,,,,,,,,,,387.234021600103,None,387.234021600103,None,386.73367940005846,None,f,0.6622455001343042,387.234021600103,None,,,,,,,,,,,,,i,001,2021_Jul_05_1102,toilet,2021.1.3,99.92325895767131,
0,180,-4,4,1.06,,,,,0,0,0,0,1,42,98,19,,,,,,,,,,,,,,,,,,,,,,,388.9052477001678,None,388.9052477001678,None,388.40481159999035,None,j,0.44702519988641143,388.9052477001678,None,,,,,,,,,,,,,i,001,2021_Jul_05_1102,toilet,2021.1.3,99.92325895767131,
0,180,-4,4,1.03,,,,,0,0,0,0,1,43,99,18,,,,,,,,,,,,,,,,,,,,,,,390.3661464001052,None,390.3661464001052,None,389.8658416001126,None,j,0.4580155999865383,390.3661464001052,None,,,,,,,,,,,,,i,001,2021_Jul_05_1102,toilet,2021.1.3,99.92325895767131,
0,180,4,-4,1.15,,,,,0,0,0,0,1,44,100,27,,,,,,,,,,,,,,,,,,,,,,,391.8271546000615,None,391.8271546000615,None,391.32680410007015,None,f,0.4369981999043375,391.8271546000615,None,,,,,,,,,,,,,i,001,2021_Jul_05_1102,toilet,2021.1.3,99.92325895767131,
180,0,4,-4,0.97,,,,,0,0,0,0,1,45,101,51,,,,,,,,,,,,,,,,,,,,,,,393.2681073001586,None,393.2681073001586,None,392.76776950014755,None,j,0.43625480006448925,393.2681073001586,None,,,,,,,,,,,,,i,001,2021_Jul_05_1102,toilet,2021.1.3,99.92325895767131,
0,180,4,-4,0.94,,,,,0,0,0,0,1,46,102,22,,,,,,,,,,,,,,,,,,,,,,,394.709081399953,None,394.709081399953,None,394.2187471999787,None,j,0.6433657000306994,394.709081399953,None,,,,,,,,,,,,,i,001,2021_Jul_05_1102,toilet,2021.1.3,99.92325895767131,
0,180,4,-4,1.03,,,,,0,0,0,0,1,47,103,25,,,,,,,,,,,,,,,,,,,,,,,396.3702511000447,None,396.3702511000447,None,395.8698783,None,f,0.4699977000709623,396.3702511000447,None,,,,,,,,,,,,,i,001,2021_Jul_05_1102,toilet,2021.1.3,99.92325895767131,
0,180,4,-4,1.06,,,,,0,0,0,0,1,48,104,26,,,,,,,,,,,,,,,,,,,,,,,397.8512120000087,None,397.8512120000087,None,397.35090210009366,None,f,0.47693279990926385,397.8512120000087,None,,,,,,,,,,,,,i,001,2021_Jul_05_1102,toilet,2021.1.3,99.92325895767131,
0,0,-4,4,1.0,,,,,0,0,0,0,1,49,105,3,,,,,,,,,,,,,,,,,,,,,,,399.3322266000323,None,399.3322266000323,None,398.8319047000259,None,j,0.4679261001292616,399.3322266000323,None,,,,,,,,,,,,,i,001,2021_Jul_05_1102,toilet,2021.1.3,99.92325895767131,
180,180,-4,4,1.0,,,,,0,0,0,0,1,50,106,31,,,,,,,,,,,,,,,,,,,,,,,400.8032094000373,None,400.8032094000373,None,400.30287660006434,None,j,0.693116300040856,400.8032094000373,None,,,,,,,,,,,,,i,001,2021_Jul_05_1102,toilet,2021.1.3,99.92325895767131,
180,0,-4,4,1.15,,,,,0,0,0,0,1,51,107,48,,,,,,,,,,,,,,,,,,,,,,,402.5044703001622,None,402.5044703001622,None,402.0040245000273,None,j,0.46375199989415705,402.5044703001622,None,,,,,,,,,,,,,i,001,2021_Jul_05_1102,toilet,2021.1.3,99.92325895767131,
0,180,-4,4,0.85,,,,,0,0,0,0,1,52,108,14,,,,,,,,,,,,,,,,,,,,,,,403.9754503001459,None,403.9754503001459,None,403.475143100135,None,f,0.44868370005860925,403.9754503001459,None,,,,,,,,,,,,,i,001,2021_Jul_05_1102,toilet,2021.1.3,99.92325895767131,
0,0,-4,4,1.15,,,,,0,0,0,0,1,53,109,6,,,,,,,,,,,,,,,,,,,,,,,405.4263490999583,None,405.4263490999583,None,404.9260232001543,None,j,0.3738276001531631,405.4263490999583,None,,,,,,,,,,,,,i,001,2021_Jul_05_1102,toilet,2021.1.3,99.92325895767131,
0,0,4,-4,0.97,,,,,0,0,0,0,1,54,110,9,,,,,,,,,,,,,,,,,,,,,,,406.8072816999629,None,406.8072816999629,None,406.30693630012684,None,j,0.528995200060308,406.8072816999629,None,,,,,,,,,,,,,i,001,2021_Jul_05_1102,toilet,2021.1.3,99.92325895767131,
180,0,-4,4,1.03,,,,,0,0,0,0,1,55,111,46,,,,,,,,,,,,,,,,,,,,,,,408.3383176000789,None,408.3383176000789,None,407.8379769001622,None,f,0.8539557999465615,408.3383176000789,None,,,,,,,,,,,,,i,001,2021_Jul_05_1102,toilet,2021.1.3,99.92325895767131,
,,,,,,,,,0,0,0,0,,,,,,,,,,,,,,,,,,,,,,,,,,,,,,,,,,,,,409.2189770000987,None,space,41.65315940021537,409.2189770000987,None,,,,,,,i,001,2021_Jul_05_1102,toilet,2021.1.3,99.92325895767131,
180,180,4,-4,1.15,,,,,1,0,1,0,0,0,0,41,,,,,,,,,,,,,,,,,450.88713779998943,None,space,1.7451134999282658,450.88713779998943,None,453.65902030002326,None,453.65902030002326,None,453.15868140012026,None,f,0.6691382001154125,453.65902030002326,None,,,,,,,,,,,,,i,001,2021_Jul_05_1102,toilet,2021.1.3,99.92325895767131,
0,0,-4,4,0.97,,,,,1,0,1,0,0,1,1,2,,,,,,,,,,,,,,,,,,,,,,,455.34026050008833,None,455.34026050008833,None,454.8398217000067,None,j,0.42790589993819594,455.34026050008833,None,,,,,,,,,,,,,i,001,2021_Jul_05_1102,toilet,2021.1.3,99.92325895767131,
180,0,4,-4,0.97,,,,,1,0,1,0,0,2,2,51,,,,,,,,,,,,,,,,,,,,,,,456.7811315001454,None,456.7811315001454,None,456.2808336999733,None,j,0.5389400999993086,456.7811315001454,None,,,,,,,,,,,,,i,001,2021_Jul_05_1102,toilet,2021.1.3,99.92325895767131,
0,0,-4,4,0.94,,,,,1,0,1,0,0,3,3,1,,,,,,,,,,,,,,,,,,,,,,,458.32217649999075,None,458.32217649999075,None,457.8218426001258,None,f,0.518077899934724,458.32217649999075,None,,,,,,,,,,,,,i,001,2021_Jul_05_1102,toilet,2021.1.3,99.92325895767131,
0,0,-4,4,1.03,,,,,1,0,1,0,0,4,4,4,,,,,,,,,,,,,,,,,,,,,,,459.85321750002913,None,459.85321750002913,None,459.3528720999602,None,f,0.49089940008707345,459.85321750002913,None,,,,,,,,,,,,,i,001,2021_Jul_05_1102,toilet,2021.1.3,99.92325895767131,
0,0,4,-4,1.06,,,,,1,0,1,0,0,5,5,12,,,,,,,,,,,,,,,,,,,,,,,461.3542353999801,None,461.3542353999801,None,460.8538903000299,None,f,0.557834800099954,461.3542353999801,None,,,,,,,,,,,,,i,001,2021_Jul_05_1102,toilet,2021.1.3,99.92325895767131,
0,0,4,-4,1.03,,,,,1,0,1,0,0,6,6,11,,,,,,,,,,,,,,,,,,,,,,,462.91538530006073,None,462.91538530006073,None,462.4149880001787,None,f,0.5648268999066204,462.91538530006073,None,,,,,,,,,,,,,i,001,2021_Jul_05_1102,toilet,2021.1.3,99.92325895767131,
0,180,4,-4,0.94,,,,,1,0,1,0,0,7,7,22,,,,,,,,,,,,,,,,,,,,,,,464.496363400016,None,464.496363400016,None,463.9960213000886,None,j,0.5197123000398278,464.496363400016,None,,,,,,,,,,,,,i,001,2021_Jul_05_1102,toilet,2021.1.3,99.92325895767131,
0,180,4,-4,1.0,,,,,1,0,1,0,0,8,8,24,,,,,,,,,,,,,,,,,,,,,,,466.01739559997804,None,466.01739559997804,None,465.51705570006743,None,f,0.48682480002753437,466.01739559997804,None,,,,,,,,,,,,,i,001,2021_Jul_05_1102,toilet,2021.1.3,99.92325895767131,
180,0,-4,4,0.97,,,,,1,0,1,0,0,9,9,44,,,,,,,,,,,,,,,,,,,,,,,467.528413400054,None,467.528413400054,None,467.0280832001008,None,f,0.5437548998743296,467.528413400054,None,,,,,,,,,,,,,i,001,2021_Jul_05_1102,toilet,2021.1.3,99.92325895767131,
0,180,4,-4,1.15,,,,,1,0,1,0,0,10,10,27,,,,,,,,,,,,,,,,,,,,,,,469.0795495000202,None,469.0795495000202,None,468.5791275999509,None,f,0.44859029981307685,469.0795495000202,None,,,,,,,,,,,,,i,001,2021_Jul_05_1102,toilet,2021.1.3,99.92325895767131,
0,180,-4,4,0.94,,,,,1,0,1,0,0,11,11,15,,,,,,,,,,,,,,,,,,,,,,,470.5305262999609,None,470.5305262999609,None,470.03020210005343,None,f,0.6935434001497924,470.5305262999609,None,,,,,,,,,,,,,i,001,2021_Jul_05_1102,toilet,2021.1.3,99.92325895767131,
0,0,-4,4,1.06,,,,,1,0,1,0,0,12,12,5,,,,,,,,,,,,,,,,,,,,,,,472.2316044000909,None,472.2316044000909,None,471.731265099952,None,j,0.5124479001387954,472.2316044000909,None,,,,,,,,,,,,,i,001,2021_Jul_05_1102,toilet,2021.1.3,99.92325895767131,
180,180,4,-4,1.0,,,,,1,0,1,0,0,13,13,38,,,,,,,,,,,,,,,,,,,,,,,473.7526386999525,None,473.7526386999525,None,473.2522972000297,None,j,0.735633600037545,473.7526386999525,None,,,,,,,,,,,,,i,001,2021_Jul_05_1102,toilet,2021.1.3,99.92325895767131,
0,0,4,-4,0.85,,,,,1,0,1,0,0,14,14,7,,,,,,,,,,,,,,,,,,,,,,,475.50381790008396,None,475.50381790008396,None,475.00346449995413,None,j,0.4083236998412758,475.50381790008396,None,,,,,,,,,,,,,i,001,2021_Jul_05_1102,toilet,2021.1.3,99.92325895767131,
0,180,4,-4,1.03,,,,,1,0,1,0,0,15,15,25,,,,,,,,,,,,,,,,,,,,,,,476.9247829001397,None,476.9247829001397,None,476.42452630004846,None,f,0.6193566001020372,476.9247829001397,None,,,,,,,,,,,,,i,001,2021_Jul_05_1102,toilet,2021.1.3,99.92325895767131,
180,180,4,-4,0.85,,,,,1,0,1,0,0,16,16,35,,,,,,,,,,,,,,,,,,,,,,,478.5559278000146,None,478.5559278000146,None,478.0556363000069,None,j,0.4123712999280542,478.5559278000146,None,,,,,,,,,,,,,i,001,2021_Jul_05_1102,toilet,2021.1.3,99.92325895767131,
0,180,4,-4,0.85,,,,,1,0,1,0,0,17,17,21,,,,,,,,,,,,,,,,,,,,,,,479.9768459000625,None,479.9768459000625,None,479.476508700056,None,j,0.4152053000871092,479.9768459000625,None,,,,,,,,,,,,,i,001,2021_Jul_05_1102,toilet,2021.1.3,99.92325895767131,
180,0,4,-4,1.15,,,,,1,0,1,0,0,18,18,55,,,,,,,,,,,,,,,,,,,,,,,481.3978261000011,None,481.3978261000011,None,480.8974711999763,None,f,0.3863941999152303,481.3978261000011,None,,,,,,,,,,,,,i,001,2021_Jul_05_1102,toilet,2021.1.3,99.92325895767131,
0,0,4,-4,0.97,,,,,1,0,1,0,0,19,19,9,,,,,,,,,,,,,,,,,,,,,,,482.79876559996046,None,482.79876559996046,None,482.2984211000148,None,j,0.4573891998734325,482.79876559996046,None,,,,,,,,,,,,,i,001,2021_Jul_05_1102,toilet,2021.1.3,99.92325895767131,
180,180,-4,4,1.0,,,,,1,0,1,0,0,20,20,31,,,,,,,,,,,,,,,,,,,,,,,484.2698552000802,None,484.2698552000802,None,483.7694431000855,None,j,0.4903124999254942,484.2698552000802,None,,,,,,,,,,,,,i,001,2021_Jul_05_1102,toilet,2021.1.3,99.92325895767131,
0,180,4,-4,0.97,,,,,1,0,1,0,0,21,21,23,,,,,,,,,,,,,,,,,,,,,,,485.7708127000369,None,485.7708127000369,None,485.2704624000471,None,f,0.7013654999900609,485.7708127000369,None,,,,,,,,,,,,,i,001,2021_Jul_05_1102,toilet,2021.1.3,99.92325895767131,
180,0,4,-4,1.0,,,,,1,0,1,0,0,22,22,52,,,,,,,,,,,,,,,,,,,,,,,487.4719283001032,None,487.4719283001032,None,486.97158560017124,None,j,0.34411279996857047,487.4719283001032,None,,,,,,,,,,,,,i,001,2021_Jul_05_1102,toilet,2021.1.3,99.92325895767131,
180,0,4,-4,1.06,,,,,1,0,1,0,0,23,23,54,,,,,,,,,,,,,,,,,,,,,,,488.82285310002044,None,488.82285310002044,None,488.3225010000169,None,f,0.6254336000420153,488.82285310002044,None,,,,,,,,,,,,,i,001,2021_Jul_05_1102,toilet,2021.1.3,99.92325895767131,
0,180,-4,4,1.03,,,,,1,0,1,0,0,24,24,18,,,,,,,,,,,,,,,,,,,,,,,490.4539459999651,None,490.4539459999651,None,489.95361130009405,None,j,0.40216930001042783,490.4539459999651,None,,,,,,,,,,,,,i,001,2021_Jul_05_1102,toilet,2021.1.3,99.92325895767131,
180,180,-4,4,0.85,,,,,1,0,1,0,0,25,25,28,,,,,,,,,,,,,,,,,,,,,,,491.86498509999365,None,491.86498509999365,None,491.3645628001541,None,f,0.4790445000398904,491.86498509999365,None,,,,,,,,,,,,,i,001,2021_Jul_05_1102,toilet,2021.1.3,99.92325895767131,
0,0,4,-4,1.15,,,,,1,0,1,0,0,26,26,13,,,,,,,,,,,,,,,,,,,,,,,493.3559402001556,None,493.3559402001556,None,492.85566450003535,None,f,0.44410750013776124,493.3559402001556,None,,,,,,,,,,,,,i,001,2021_Jul_05_1102,toilet,2021.1.3,99.92325895767131,
180,0,-4,4,0.94,,,,,1,0,1,0,0,27,27,43,,,,,,,,,,,,,,,,,,,,,,,494.8068957000505,None,494.8068957000505,None,494.30655950005166,None,f,0.44918330013751984,494.8068957000505,None,,,,,,,,,,,,,i,001,2021_Jul_05_1102,toilet,2021.1.3,99.92325895767131,
180,0,4,-4,0.94,,,,,1,0,1,0,0,28,28,50,,,,,,,,,,,,,,,,,,,,,,,496.27789110015146,None,496.27789110015146,None,495.77754879998975,None,j,0.4502703999169171,496.27789110015146,None,,,,,,,,,,,,,i,001,2021_Jul_05_1102,toilet,2021.1.3,99.92325895767131,
180,180,-4,4,1.03,,,,,1,0,1,0,0,29,29,32,,,,,,,,,,,,,,,,,,,,,,,497.7388764000498,None,497.7388764000498,None,497.23855930007994,None,j,0.42927330010570586,497.7388764000498,None,,,,,,,,,,,,,i,001,2021_Jul_05_1102,toilet,2021.1.3,99.92325895767131,
0,0,4,-4,1.0,,,,,1,0,1,0,0,30,30,10,,,,,,,,,,,,,,,,,,,,,,,499.1799670001492,None,499.1799670001492,None,498.6795916000847,None,f,0.5722336999606341,499.1799670001492,None,,,,,,,,,,,,,i,001,2021_Jul_05_1102,toilet,2021.1.3,99.92325895767131,
0,180,-4,4,1.0,,,,,1,0,1,0,0,31,31,17,,,,,,,,,,,,,,,,,,,,,,,500.7609245001804,None,500.7609245001804,None,500.26058810018003,None,j,0.4151120998430997,500.7609245001804,None,,,,,,,,,,,,,i,001,2021_Jul_05_1102,toilet,2021.1.3,99.92325895767131,
0,180,-4,4,0.85,,,,,1,0,1,0,0,32,32,14,,,,,,,,,,,,,,,,,,,,,,,502.1818870001007,None,502.1818870001007,None,501.681549299974,None,f,0.498169899918139,502.1818870001007,None,,,,,,,,,,,,,i,001,2021_Jul_05_1102,toilet,2021.1.3,99.92325895767131,
180,0,-4,4,1.15,,,,,1,0,1,0,0,33,33,48,,,,,,,,,,,,,,,,,,,,,,,503.68290340015665,None,503.68290340015665,None,503.1825679000467,None,j,0.4532697000540793,503.68290340015665,None,,,,,,,,,,,,,i,001,2021_Jul_05_1102,toilet,2021.1.3,99.92325895767131,
180,180,-4,4,0.97,,,,,1,0,1,0,0,34,34,30,,,,,,,,,,,,,,,,,,,,,,,505.153919900069,None,505.153919900069,None,504.6535616000183,None,f,0.6782626998610795,505.153919900069,None,,,,,,,,,,,,,i,001,2021_Jul_05_1102,toilet,2021.1.3,99.92325895767131,
0,180,-4,4,1.15,,,,,1,0,1,0,0,35,35,20,,,,,,,,,,,,,,,,,,,,,,,506.8450506001245,None,506.8450506001245,None,506.34472630009986,None,j,0.395111900055781,506.8450506001245,None,,,,,,,,,,,,,i,001,2021_Jul_05_1102,toilet,2021.1.3,99.92325895767131,
0,180,-4,4,0.97,,,,,1,0,1,0,0,36,36,16,,,,,,,,,,,,,,,,,,,,,,,508.2560007001739,None,508.2560007001739,None,507.7557594999671,None,j,0.5041203000582755,508.2560007001739,None,,,,,,,,,,,,,i,001,2021_Jul_05_1102,toilet,2021.1.3,99.92325895767131,
180,180,4,-4,1.06,,,,,1,0,1,0,0,37,37,40,,,,,,,,,,,,,,,,,,,,,,,509.7670348000247,None,509.7670348000247,None,509.2666917000897,None,f,0.44899340020492673,509.7670348000247,None,,,,,,,,,,,,,i,001,2021_Jul_05_1102,toilet,2021.1.3,99.92325895767131,
180,0,-4,4,1.0,,,,,1,0,1,0,0,38,38,45,,,,,,,,,,,,,,,,,,,,,,,511.2180070001632,None,511.2180070001632,None,510.71767559996806,None,f,0.6141829001717269,511.2180070001632,None,,,,,,,,,,,,,i,001,2021_Jul_05_1102,toilet,2021.1.3,99.92325895767131,
180,0,4,-4,0.85,,,,,1,0,1,0,0,39,39,49,,,,,,,,,,,,,,,,,,,,,,,512.8491134000942,None,512.8491134000942,None,512.348775099963,None,j,0.3589415999595076,512.8491134000942,None,,,,,,,,,,,,,i,001,2021_Jul_05_1102,toilet,2021.1.3,99.92325895767131,
180,180,4,-4,0.97,,,,,1,0,1,0,0,40,40,37,,,,,,,,,,,,,,,,,,,,,,,514.2200394000392,None,514.2200394000392,None,513.7197849000804,None,j,0.7159714000299573,514.2200394000392,None,,,,,,,,,,,,,i,001,2021_Jul_05_1102,toilet,2021.1.3,99.92325895767131,
0,0,-4,4,1.15,,,,,1,0,1,0,0,41,41,6,,,,,,,,,,,,,,,,,,,,,,,515.9412088000681,None,515.9412088000681,None,515.440878600115,None,j,0.4508099998347461,515.9412088000681,None,,,,,,,,,,,,,i,001,2021_Jul_05_1102,toilet,2021.1.3,99.92325895767131,
180,180,4,-4,0.94,,,,,1,0,1,0,0,42,42,36,,,,,,,,,,,,,,,,,,,,,,,517.3921932000667,None,517.3921932000667,None,516.8918546000496,None,j,0.567833699984476,517.3921932000667,None,,,,,,,,,,,,,i,001,2021_Jul_05_1102,toilet,2021.1.3,99.92325895767131,
180,0,4,-4,1.03,,,,,1,0,1,0,0,43,43,53,,,,,,,,,,,,,,,,,,,,,,,518.9632536000572,None,518.9632536000572,None,518.462914200034,None,f,1.3328372999094427,518.9632536000572,None,,,,,,,,,,,,,i,001,2021_Jul_05_1102,toilet,2021.1.3,99.92325895767131,
0,180,4,-4,1.06,,,,,1,0,1,0,0,44,44,26,,,,,,,,,,,,,,,,,,,,,,,521.3148442001548,None,521.3148442001548,None,520.8145944001153,None,f,0.5173001000657678,521.3148442001548,None,,,,,,,,,,,,,i,001,2021_Jul_05_1102,toilet,2021.1.3,99.92325895767131,
0,0,-4,4,0.85,,,,,1,0,1,0,0,45,45,0,,,,,,,,,,,,,,,,,,,,,,,522.8458883001003,None,522.8458883001003,None,522.3455470001791,None,f,0.4741177000105381,522.8458883001003,None,,,,,,,,,,,,,i,001,2021_Jul_05_1102,toilet,2021.1.3,99.92325895767131,
180,0,-4,4,0.85,,,,,1,0,1,0,0,46,46,42,,,,,,,,,,,,,,,,,,,,,,,524.3268867000006,None,524.3268867000006,None,523.8265474999789,None,f,0.43329379986971617,524.3268867000006,None,,,,,,,,,,,,,i,001,2021_Jul_05_1102,toilet,2021.1.3,99.92325895767131,
180,180,-4,4,0.94,,,,,1,0,1,0,0,47,47,29,,,,,,,,,,,,,,,,,,,,,,,525.7678646000568,None,525.7678646000568,None,525.267518500099,None,f,0.4001763998530805,525.7678646000568,None,,,,,,,,,,,,,i,001,2021_Jul_05_1102,toilet,2021.1.3,99.92325895767131,
180,0,-4,4,1.03,,,,,1,0,1,0,0,48,48,46,,,,,,,,,,,,,,,,,,,,,,,527.1688151999842,None,527.1688151999842,None,526.6684763999656,None,f,0.5512943000067025,527.1688151999842,None,,,,,,,,,,,,,i,001,2021_Jul_05_1102,toilet,2021.1.3,99.92325895767131,
180,0,-4,4,1.06,,,,,1,0,1,0,0,49,49,47,,,,,,,,,,,,,,,,,,,,,,,528.7199385000858,None,528.7199385000858,None,528.2196045001037,None,j,1.1762051000259817,528.7199385000858,None,,,,,,,,,,,,,i,001,2021_Jul_05_1102,toilet,2021.1.3,99.92325895767131,
0,0,4,-4,0.94,,,,,1,0,1,0,0,50,50,8,,,,,,,,,,,,,,,,,,,,,,,530.9113452001475,None,530.9113452001475,None,530.4110125000589,None,j,0.45666040014475584,530.9113452001475,None,,,,,,,,,,,,,i,001,2021_Jul_05_1102,toilet,2021.1.3,99.92325895767131,
0,180,-4,4,1.06,,,,,1,0,1,0,0,51,51,19,,,,,,,,,,,,,,,,,,,,,,,532.3723391001113,None,532.3723391001113,None,531.8719983000774,None,j,0.35571459983475506,532.3723391001113,None,,,,,,,,,,,,,i,001,2021_Jul_05_1102,toilet,2021.1.3,99.92325895767131,
180,180,4,-4,1.03,,,,,1,0,1,0,0,52,52,39,,,,,,,,,,,,,,,,,,,,,,,533.7332621000241,None,533.7332621000241,None,533.2329186000861,None,f,0.5148819000460207,533.7332621000241,None,,,,,,,,,,,,,i,001,2021_Jul_05_1102,toilet,2021.1.3,99.92325895767131,
180,180,-4,4,1.15,,,,,1,0,1,0,0,53,53,34,,,,,,,,,,,,,,,,,,,,,,,535.2743053000886,None,535.2743053000886,None,534.7739634001628,None,j,0.3977711999323219,535.2743053000886,None,,,,,,,,,,,,,i,001,2021_Jul_05_1102,toilet,2021.1.3,99.92325895767131,
180,180,-4,4,1.06,,,,,1,0,1,0,0,54,54,33,,,,,,,,,,,,,,,,,,,,,,,536.6752717001364,None,536.6752717001364,None,536.1850144001655,None,j,0.5808133999817073,536.6752717001364,None,,,,,,,,,,,,,i,001,2021_Jul_05_1102,toilet,2021.1.3,99.92325895767131,
0,0,-4,4,1.0,,,,,1,0,1,0,0,55,55,3,,,,,,,,,,,,,,,,,,,,,,,538.2663317001425,None,538.2663317001425,None,537.7659911999945,None,j,0.8938841999042779,538.2663317001425,None,,,,,,,,,,,,,i,001,2021_Jul_05_1102,toilet,2021.1.3,99.92325895767131,
180,0,-4,4,1.15,,,,,1,0,1,0,1,0,56,48,,,,,,,,,,,,,,,,,,,,,,,540.1676203999668,None,540.1676203999668,None,539.6672894000076,None,j,0.4645836998242885,540.1676203999668,None,,,,,,,,,,,,,i,001,2021_Jul_05_1102,toilet,2021.1.3,99.92325895767131,
0,0,4,-4,1.06,,,,,1,0,1,0,1,1,57,12,,,,,,,,,,,,,,,,,,,,,,,541.6586265000515,None,541.6586265000515,None,541.1582903000526,None,f,0.4455180000513792,541.6586265000515,None,,,,,,,,,,,,,i,001,2021_Jul_05_1102,toilet,2021.1.3,99.92325895767131,
180,180,-4,4,0.97,,,,,1,0,1,0,1,2,58,30,,,,,,,,,,,,,,,,,,,,,,,543.1296201001387,None,543.1296201001387,None,542.6293630001601,None,f,0.5745193001348525,543.1296201001387,None,,,,,,,,,,,,,i,001,2021_Jul_05_1102,toilet,2021.1.3,99.92325895767131,
0,180,-4,4,0.94,,,,,1,0,1,0,1,3,59,15,,,,,,,,,,,,,,,,,,,,,,,544.7207375001162,None,544.7207375001162,None,544.2204642000142,None,j,0.8872484001331031,544.7207375001162,None,,,,,,,,,,,,,i,001,2021_Jul_05_1102,toilet,2021.1.3,99.92325895767131,
180,180,4,-4,0.97,,,,,1,0,1,0,1,4,60,37,,,,,,,,,,,,,,,,,,,,,,,546.6119832999539,None,546.6119832999539,None,546.1116520999931,None,j,0.5000311001203954,546.6119832999539,None,,,,,,,,,,,,,i,001,2021_Jul_05_1102,toilet,2021.1.3,99.92325895767131,
0,180,4,-4,0.85,,,,,1,0,1,0,1,5,61,21,,,,,,,,,,,,,,,,,,,,,,,548.1129987000022,None,548.1129987000022,None,547.6126576999668,None,j,0.407035700045526,548.1129987000022,None,,,,,,,,,,,,,i,001,2021_Jul_05_1102,toilet,2021.1.3,99.92325895767131,
0,180,4,-4,1.03,,,,,1,0,1,0,1,6,62,25,,,,,,,,,,,,,,,,,,,,,,,549.523963100044,None,549.523963100044,None,549.023613900179,None,f,0.48413469991646707,549.523963100044,None,,,,,,,,,,,,,i,001,2021_Jul_05_1102,toilet,2021.1.3,99.92325895767131,
180,180,4,-4,1.06,,,,,1,0,1,0,1,7,63,40,,,,,,,,,,,,,,,,,,,,,,,551.0150446000043,None,551.0150446000043,None,550.5246315000113,None,f,0.5289433000143617,551.0150446000043,None,,,,,,,,,,,,,i,001,2021_Jul_05_1102,toilet,2021.1.3,99.92325895767131,
180,0,-4,4,0.97,,,,,1,0,1,0,1,8,64,44,,,,,,,,,,,,,,,,,,,,,,,552.5459984999616,None,552.5459984999616,None,552.0457023000345,None,f,0.5179794998839498,552.5459984999616,None,,,,,,,,,,,,,i,001,2021_Jul_05_1102,toilet,2021.1.3,99.92325895767131,
0,180,4,-4,0.94,,,,,1,0,1,0,1,9,65,22,,,,,,,,,,,,,,,,,,,,,,,554.0670295001473,None,554.0670295001473,None,553.566693900153,None,f,0.6609449000097811,554.0670295001473,None,,,,,,,,,,,,,i,001,2021_Jul_05_1102,toilet,2021.1.3,99.92325895767131,
180,180,-4,4,1.15,,,,,1,0,1,0,1,10,66,34,,,,,,,,,,,,,,,,,,,,,,,555.7281603000592,None,555.7281603000592,None,555.2278191000223,None,j,0.35997339989989996,555.7281603000592,None,,,,,,,,,,,,,i,001,2021_Jul_05_1102,toilet,2021.1.3,99.92325895767131,
0,0,-4,4,1.15,,,,,1,0,1,0,1,11,67,6,,,,,,,,,,,,,,,,,,,,,,,557.0990846001077,None,557.0990846001077,None,556.5987436000723,None,j,0.3970999999437481,557.0990846001077,None,,,,,,,,,,,,,i,001,2021_Jul_05_1102,toilet,2021.1.3,99.92325895767131,
180,0,-4,4,0.94,,,,,1,0,1,0,1,12,68,43,,,,,,,,,,,,,,,,,,,,,,,558.5100414999761,None,558.5100414999761,None,558.0097898000386,None,f,0.5700123999267817,558.5100414999761,None,,,,,,,,,,,,,i,001,2021_Jul_05_1102,toilet,2021.1.3,99.92325895767131,
180,0,-4,4,1.0,,,,,1,0,1,0,1,13,69,45,,,,,,,,,,,,,,,,,,,,,,,560.0911121000536,None,560.0911121000536,None,559.5908095999621,None,f,0.6368653001263738,560.0911121000536,None,,,,,,,,,,,,,i,001,2021_Jul_05_1102,toilet,2021.1.3,99.92325895767131,
0,0,-4,4,0.94,,,,,1,0,1,0,1,14,70,1,,,,,,,,,,,,,,,,,,,,,,,561.7322236001492,None,561.7322236001492,None,561.2318921000697,None,f,0.5478038000874221,561.7322236001492,None,,,,,,,,,,,,,i,001,2021_Jul_05_1102,toilet,2021.1.3,99.92325895767131,
180,180,-4,4,0.85,,,,,1,0,1,0,1,15,71,28,,,,,,,,,,,,,,,,,,,,,,,563.2832761001773,None,563.2832761001773,None,562.7828947999515,None,f,0.37289550015702844,563.2832761001773,None,,,,,,,,,,,,,i,001,2021_Jul_05_1102,toilet,2021.1.3,99.92325895767131,
180,180,-4,4,1.0,,,,,1,0,1,0,1,16,72,31,,,,,,,,,,,,,,,,,,,,,,,564.6742138001136,None,564.6742138001136,None,564.1738783000037,None,f,0.40588239999487996,564.6742138001136,None,,,,,,,,,,,,,i,001,2021_Jul_05_1102,toilet,2021.1.3,99.92325895767131,
180,0,4,-4,1.06,,,,,1,0,1,0,1,17,73,54,,,,,,,,,,,,,,,,,,,,,,,566.1051568000112,None,566.1051568000112,None,565.6049242001027,None,f,0.44688599999062717,566.1051568000112,None,,,,,,,,,,,,,i,001,2021_Jul_05_1102,toilet,2021.1.3,99.92325895767131,
0,0,-4,4,0.85,,,,,1,0,1,0,1,18,74,0,,,,,,,,,,,,,,,,,,,,,,,567.5661808999721,None,567.5661808999721,None,567.0658597999718,None,f,0.37777990009635687,567.5661808999721,None,,,,,,,,,,,,,i,001,2021_Jul_05_1102,toilet,2021.1.3,99.92325895767131,
180,180,4,-4,1.15,,,,,1,0,1,0,1,19,75,41,,,,,,,,,,,,,,,,,,,,,,,568.947105600033,None,568.947105600033,None,568.4467693001498,None,f,0.4368773999158293,568.947105600033,None,,,,,,,,,,,,,i,001,2021_Jul_05_1102,toilet,2021.1.3,99.92325895767131,
180,180,-4,4,1.06,,,,,1,0,1,0,1,20,76,33,,,,,,,,,,,,,,,,,,,,,,,570.3880875001196,None,570.3880875001196,None,569.8877503999975,None,j,0.564031699905172,570.3880875001196,None,,,,,,,,,,,,,i,001,2021_Jul_05_1102,toilet,2021.1.3,99.92325895767131,
0,0,-4,4,1.03,,,,,1,0,1,0,1,21,77,4,,,,,,,,,,,,,,,,,,,,,,,571.9692381999921,None,571.9692381999921,None,571.4688192000613,None,j,0.47072470001876354,571.9692381999921,None,,,,,,,,,,,,,i,001,2021_Jul_05_1102,toilet,2021.1.3,99.92325895767131,
0,0,-4,4,1.06,,,,,1,0,1,0,1,22,78,5,,,,,,,,,,,,,,,,,,,,,,,573.4402348001022,None,573.4402348001022,None,572.9398990001064,None,j,1.0797138998750597,573.4402348001022,None,,,,,,,,,,,,,i,001,2021_Jul_05_1102,toilet,2021.1.3,99.92325895767131,
0,0,-4,4,0.97,,,,,1,0,1,0,1,23,79,2,,,,,,,,,,,,,,,,,,,,,,,575.5215645001736,None,575.5215645001736,None,575.0212266000453,None,f,0.9024991998448968,575.5215645001736,None,,,,,,,,,,,,,i,001,2021_Jul_05_1102,toilet,2021.1.3,99.92325895767131,
0,0,4,-4,0.94,,,,,1,0,1,0,1,24,80,8,,,,,,,,,,,,,,,,,,,,,,,577.4328587001655,None,577.4328587001655,None,576.9325191001408,None,j,0.44722580001689494,577.4328587001655,None,,,,,,,,,,,,,i,001,2021_Jul_05_1102,toilet,2021.1.3,99.92325895767131,
0,180,-4,4,1.0,,,,,1,0,1,0,1,25,81,17,,,,,,,,,,,,,,,,,,,,,,,578.9038567000534,None,578.9038567000534,None,578.4035163000226,None,j,0.8322152001783252,578.9038567000534,None,,,,,,,,,,,,,i,001,2021_Jul_05_1102,toilet,2021.1.3,99.92325895767131,
0,0,4,-4,0.85,,,,,1,0,1,0,1,26,82,7,,,,,,,,,,,,,,,,,,,,,,,580.7451953999698,None,580.7451953999698,None,580.2447637000587,None,j,0.4949036999605596,580.7451953999698,None,,,,,,,,,,,,,i,001,2021_Jul_05_1102,toilet,2021.1.3,99.92325895767131,
0,180,-4,4,0.85,,,,,1,0,1,0,1,27,83,14,,,,,,,,,,,,,,,,,,,,,,,582.2561248999555,None,582.2561248999555,None,581.7557865001727,None,f,0.4398202998563647,582.2561248999555,None,,,,,,,,,,,,,i,001,2021_Jul_05_1102,toilet,2021.1.3,99.92325895767131,
180,180,4,-4,0.85,,,,,1,0,1,0,1,28,84,35,,,,,,,,,,,,,,,,,,,,,,,583.6970997999888,None,583.6970997999888,None,583.1967605000827,None,j,0.3908382998779416,583.6970997999888,None,,,,,,,,,,,,,i,001,2021_Jul_05_1102,toilet,2021.1.3,99.92325895767131,
180,0,4,-4,0.94,,,,,1,0,1,0,1,29,85,50,,,,,,,,,,,,,,,,,,,,,,,585.0880442000926,None,585.0880442000926,None,584.5877062999643,None,j,0.39202119992114604,585.0880442000926,None,,,,,,,,,,,,,i,001,2021_Jul_05_1102,toilet,2021.1.3,99.92325895767131,
180,0,-4,4,1.03,,,,,1,0,1,0,1,30,86,46,,,,,,,,,,,,,,,,,,,,,,,586.488993300125,None,586.488993300125,None,585.9886495000683,None,f,0.8151325997896492,586.488993300125,None,,,,,,,,,,,,,i,001,2021_Jul_05_1102,toilet,2021.1.3,99.92325895767131,
180,0,4,-4,1.15,,,,,1,0,1,0,1,31,87,55,,,,,,,,,,,,,,,,,,,,,,,588.3203056000639,None,588.3203056000639,None,587.8199785000179,None,f,0.4877129001542926,588.3203056000639,None,,,,,,,,,,,,,i,001,2021_Jul_05_1102,toilet,2021.1.3,99.92325895767131,
180,180,4,-4,1.0,,,,,1,0,1,0,1,32,88,38,,,,,,,,,,,,,,,,,,,,,,,589.8212837001774,None,589.8212837001774,None,589.3209113001358,None,f,0.6828060999978334,589.8212837001774,None,,,,,,,,,,,,,i,001,2021_Jul_05_1102,toilet,2021.1.3,99.92325895767131,
0,180,4,-4,1.0,,,,,1,0,1,0,1,33,89,24,,,,,,,,,,,,,,,,,,,,,,,591.5123942999635,None,591.5123942999635,None,591.0120862000622,None,j,0.5916695999912918,591.5123942999635,None,,,,,,,,,,,,,i,001,2021_Jul_05_1102,toilet,2021.1.3,99.92325895767131,
0,180,-4,4,1.06,,,,,1,0,1,0,1,34,90,19,,,,,,,,,,,,,,,,,,,,,,,593.1134766000323,None,593.1134766000323,None,592.6131393001415,None,j,0.39870830019935966,593.1134766000323,None,,,,,,,,,,,,,i,001,2021_Jul_05_1102,toilet,2021.1.3,99.92325895767131,
180,0,-4,4,1.06,,,,,1,0,1,0,1,35,91,47,,,,,,,,,,,,,,,,,,,,,,,594.53452750016,None,594.53452750016,None,594.0340971001424,None,f,0.9134184001013637,594.53452750016,None,,,,,,,,,,,,,i,001,2021_Jul_05_1102,toilet,2021.1.3,99.92325895767131,
180,0,4,-4,0.97,,,,,1,0,1,0,1,36,92,51,,,,,,,,,,,,,,,,,,,,,,,596.4657540000044,None,596.4657540000044,None,595.9654976001475,None,j,0.4861847998108715,596.4657540000044,None,,,,,,,,,,,,,i,001,2021_Jul_05_1102,toilet,2021.1.3,99.92325895767131,
0,180,4,-4,0.97,,,,,1,0,1,0,1,37,93,23,,,,,,,,,,,,,,,,,,,,,,,597.9567390000448,None,597.9567390000448,None,597.4564174001571,None,f,0.48337210016325116,597.9567390000448,None,,,,,,,,,,,,,i,001,2021_Jul_05_1102,toilet,2021.1.3,99.92325895767131,
0,0,4,-4,1.0,,,,,1,0,1,0,1,38,94,10,,,,,,,,,,,,,,,,,,,,,,,599.4477650001645,None,599.4477650001645,None,598.9474315000698,None,j,0.4163774000480771,599.4477650001645,None,,,,,,,,,,,,,i,001,2021_Jul_05_1102,toilet,2021.1.3,99.92325895767131,
180,180,4,-4,0.94,,,,,1,0,1,0,1,39,95,36,,,,,,,,,,,,,,,,,,,,,,,600.8787426000927,None,600.8787426000927,None,600.3783975001425,None,j,0.39333719993010163,600.8787426000927,None,,,,,,,,,,,,,i,001,2021_Jul_05_1102,toilet,2021.1.3,99.92325895767131,
0,180,-4,4,0.97,,,,,1,0,1,0,1,40,96,16,,,,,,,,,,,,,,,,,,,,,,,602.2897695000283,None,602.2897695000283,None,601.7893556000199,None,j,0.5822662999853492,602.2897695000283,None,,,,,,,,,,,,,i,001,2021_Jul_05_1102,toilet,2021.1.3,99.92325895767131,
180,180,-4,4,0.94,,,,,1,0,1,0,1,41,97,29,,,,,,,,,,,,,,,,,,,,,,,603.8807716001756,None,603.8807716001756,None,603.3805172001012,None,f,0.4151047000195831,603.8807716001756,None,,,,,,,,,,,,,i,001,2021_Jul_05_1102,toilet,2021.1.3,99.92325895767131,
0,180,-4,4,1.03,,,,,1,0,1,0,1,42,98,18,,,,,,,,,,,,,,,,,,,,,,,605.3017343000975,None,605.3017343000975,None,604.8013935000636,None,j,0.3381944999564439,605.3017343000975,None,,,,,,,,,,,,,i,001,2021_Jul_05_1102,toilet,2021.1.3,99.92325895767131,
0,180,4,-4,1.15,,,,,1,0,1,0,1,43,99,27,,,,,,,,,,,,,,,,,,,,,,,606.6426442000084,None,606.6426442000084,None,606.1423047999851,None,f,0.3894362999126315,606.6426442000084,None,,,,,,,,,,,,,i,001,2021_Jul_05_1102,toilet,2021.1.3,99.92325895767131,
180,180,4,-4,1.03,,,,,1,0,1,0,1,44,100,39,,,,,,,,,,,,,,,,,,,,,,,608.0435885000043,None,608.0435885000043,None,607.5432514999993,None,f,0.47636179998517036,608.0435885000043,None,,,,,,,,,,,,,i,001,2021_Jul_05_1102,toilet,2021.1.3,99.92325895767131,
180,0,-4,4,0.85,,,,,1,0,1,0,1,45,101,42,,,,,,,,,,,,,,,,,,,,,,,609.524683700176,None,609.524683700176,None,609.0242572999559,None,f,0.43538869987241924,609.524683700176,None,,,,,,,,,,,,,i,001,2021_Jul_05_1102,toilet,2021.1.3,99.92325895767131,
0,180,-4,4,1.15,,,,,1,0,1,0,1,46,102,20,,,,,,,,,,,,,,,,,,,,,,,610.975611400092,None,610.975611400092,None,610.4753394001164,None,j,0.392255200073123,610.975611400092,None,,,,,,,,,,,,,i,001,2021_Jul_05_1102,toilet,2021.1.3,99.92325895767131,
180,0,4,-4,0.85,,,,,1,0,1,0,1,47,103,49,,,,,,,,,,,,,,,,,,,,,,,612.3765308000147,None,612.3765308000147,None,611.8761832001619,None,j,0.3354297000914812,612.3765308000147,None,,,,,,,,,,,,,i,001,2021_Jul_05_1102,toilet,2021.1.3,99.92325895767131,
180,0,4,-4,1.0,,,,,1,0,1,0,1,48,104,52,,,,,,,,,,,,,,,,,,,,,,,613.7174323000945,None,613.7174323000945,None,613.217095799977,None,j,0.33868889999575913,613.7174323000945,None,,,,,,,,,,,,,i,001,2021_Jul_05_1102,toilet,2021.1.3,99.92325895767131,
180,180,-4,4,1.03,,,,,1,0,1,0,1,49,105,32,,,,,,,,,,,,,,,,,,,,,,,615.0683474000543,None,615.0683474000543,None,614.5680062000174,None,f,0.44372560014016926,615.0683474000543,None,,,,,,,,,,,,,i,001,2021_Jul_05_1102,toilet,2021.1.3,99.92325895767131,
0,0,4,-4,1.03,,,,,1,0,1,0,1,50,106,11,,,,,,,,,,,,,,,,,,,,,,,616.5393434001599,None,616.5393434001599,None,616.039004500024,None,f,0.3806687998585403,616.5393434001599,None,,,,,,,,,,,,,i,001,2021_Jul_05_1102,toilet,2021.1.3,99.92325895767131,
0,180,4,-4,1.06,,,,,1,0,1,0,1,51,107,26,,,,,,,,,,,,,,,,,,,,,,,617.9303647000343,None,617.9303647000343,None,617.4300377001055,None,f,0.47761909989640117,617.9303647000343,None,,,,,,,,,,,,,i,001,2021_Jul_05_1102,toilet,2021.1.3,99.92325895767131,
0,0,4,-4,0.97,,,,,1,0,1,0,1,52,108,9,,,,,,,,,,,,,,,,,,,,,,,619.42129450012,None,619.42129450012,None,618.9209543000907,None,j,0.4586169000249356,619.42129450012,None,,,,,,,,,,,,,i,001,2021_Jul_05_1102,toilet,2021.1.3,99.92325895767131,
0,0,4,-4,1.15,,,,,1,0,1,0,1,53,109,13,,,,,,,,,,,,,,,,,,,,,,,620.8822888000868,None,620.8822888000868,None,620.3819470000453,None,f,0.3575680998619646,620.8822888000868,None,,,,,,,,,,,,,i,001,2021_Jul_05_1102,toilet,2021.1.3,99.92325895767131,
0,0,-4,4,1.0,,,,,1,0,1,0,1,54,110,3,,,,,,,,,,,,,,,,,,,,,,,622.2432089999784,None,622.2432089999784,None,621.7428686001804,None,j,0.5168442998547107,622.2432089999784,None,,,,,,,,,,,,,i,001,2021_Jul_05_1102,toilet,2021.1.3,99.92325895767131,
180,0,4,-4,1.03,,,,,1,0,1,0,1,55,111,53,,,,,,,,,,,,,,,,,,,,,,,623.7742471999954,None,623.7742471999954,None,623.2739075999707,None,f,0.6176203999202698,623.7742471999954,None,,,,,,,,,,,,,i,001,2021_Jul_05_1102,toilet,2021.1.3,99.92325895767131,
,,,,,,,,,1,0,1,0,,,,,,,,,,,,,,,,,,,,,,,,,,,,,,,,,,,,,624.404672899982,None,space,1.1873033998999745,624.404672899982,None,,,,,,,i,001,2021_Jul_05_1102,toilet,2021.1.3,99.92325895767131,
180,180,-4,4,0.85,,,,,2,0,2,0,0,0,0,28,,,,,,,,,,,,,,,,,625.6155251001474,None,space,0.80836830008775,625.6155251001474,None,627.4367205000017,None,627.4367205000017,None,626.9363887000363,None,f,0.7312668999657035,627.4367205000017,None,,,,,,,,,,,,,i,001,2021_Jul_05_1102,toilet,2021.1.3,99.92325895767131,
180,180,-4,4,0.94,,,,,2,0,2,0,0,1,1,29,,,,,,,,,,,,,,,,,,,,,,,629.167897199979,None,629.167897199979,None,628.667558999965,None,f,0.6320897999685258,629.167897199979,None,,,,,,,,,,,,,i,001,2021_Jul_05_1102,toilet,2021.1.3,99.92325895767131,
180,0,4,-4,1.03,,,,,2,0,2,0,0,2,2,53,,,,,,,,,,,,,,,,,,,,,,,630.8090212000534,None,630.8090212000534,None,630.3086670001503,None,j,0.5908679999411106,630.8090212000534,None,,,,,,,,,,,,,i,001,2021_Jul_05_1102,toilet,2021.1.3,99.92325895767131,
180,0,4,-4,1.06,,,,,2,0,2,0,0,3,3,54,,,,,,,,,,,,,,,,,,,,,,,632.4002133000176,None,632.4002133000176,None,631.8998353001662,None,f,0.519677700009197,632.4002133000176,None,,,,,,,,,,,,,i,001,2021_Jul_05_1102,toilet,2021.1.3,99.92325895767131,
0,0,4,-4,1.15,,,,,2,0,2,0,0,4,4,13,,,,,,,,,,,,,,,,,,,,,,,633.9211144000292,None,633.9211144000292,None,633.420775000006,None,f,0.5188134999480098,633.9211144000292,None,,,,,,,,,,,,,i,001,2021_Jul_05_1102,toilet,2021.1.3,99.92325895767131,
0,180,-4,4,1.15,,,,,2,0,2,0,0,5,5,20,,,,,,,,,,,,,,,,,,,,,,,635.4421445000917,None,635.4421445000917,None,634.9418061000761,None,j,0.45384249999187887,635.4421445000917,None,,,,,,,,,,,,,i,001,2021_Jul_05_1102,toilet,2021.1.3,99.92325895767131,
180,180,4,-4,0.85,,,,,2,0,2,0,0,6,6,35,,,,,,,,,,,,,,,,,,,,,,,636.9131400999613,None,636.9131400999613,None,636.4127994000446,None,j,0.4548683001194149,636.9131400999613,None,,,,,,,,,,,,,i,001,2021_Jul_05_1102,toilet,2021.1.3,99.92325895767131,
180,0,-4,4,1.15,,,,,2,0,2,0,0,7,7,48,,,,,,,,,,,,,,,,,,,,,,,638.3841355000623,None,638.3841355000623,None,637.8838011999615,None,j,0.6158678999636322,638.3841355000623,None,,,,,,,,,,,,,i,001,2021_Jul_05_1102,toilet,2021.1.3,99.92325895767131,
180,0,4,-4,0.94,,,,,2,0,2,0,0,8,8,50,,,,,,,,,,,,,,,,,,,,,,,640.015335300006,None,640.015335300006,None,639.514904800104,None,j,0.7765459998045117,640.015335300006,None,,,,,,,,,,,,,i,001,2021_Jul_05_1102,toilet,2021.1.3,99.92325895767131,
0,0,-4,4,0.97,,,,,2,0,2,0,0,9,9,2,,,,,,,,,,,,,,,,,,,,,,,641.7964455001056,None,641.7964455001056,None,641.2961108000018,None,f,0.8834314998239279,641.7964455001056,None,,,,,,,,,,,,,i,001,2021_Jul_05_1102,toilet,2021.1.3,99.92325895767131,
0,180,4,-4,0.97,,,,,2,0,2,0,0,10,10,23,,,,,,,,,,,,,,,,,,,,,,,643.6877318001352,None,643.6877318001352,None,643.1873978001531,None,f,0.4963034000247717,643.6877318001352,None,,,,,,,,,,,,,i,001,2021_Jul_05_1102,toilet,2021.1.3,99.92325895767131,
0,0,4,-4,0.85,,,,,2,0,2,0,0,11,11,7,,,,,,,,,,,,,,,,,,,,,,,645.1987515999936,None,645.1987515999936,None,644.698412100086,None,j,0.36124569992534816,645.1987515999936,None,,,,,,,,,,,,,i,001,2021_Jul_05_1102,toilet,2021.1.3,99.92325895767131,
0,180,-4,4,0.85,,,,,2,0,2,0,0,12,12,14,,,,,,,,,,,,,,,,,,,,,,,646.5697687000502,None,646.5697687000502,None,646.0694361000787,None,f,0.5742805001791567,646.5697687000502,None,,,,,,,,,,,,,i,001,2021_Jul_05_1102,toilet,2021.1.3,99.92325895767131,
0,0,-4,4,1.06,,,,,2,0,2,0,0,13,13,5,,,,,,,,,,,,,,,,,,,,,,,648.1607612001244,None,648.1607612001244,None,647.660506100161,None,j,0.4552166999783367,648.1607612001244,None,,,,,,,,,,,,,i,001,2021_Jul_05_1102,toilet,2021.1.3,99.92325895767131,
0,180,4,-4,1.0,,,,,2,0,2,0,0,14,14,24,,,,,,,,,,,,,,,,,,,,,,,649.6217476001475,None,649.6217476001475,None,649.1214108001441,None,f,0.4662355000618845,649.6217476001475,None,,,,,,,,,,,,,i,001,2021_Jul_05_1102,toilet,2021.1.3,99.92325895767131,
0,0,4,-4,0.97,,,,,2,0,2,0,0,15,15,9,,,,,,,,,,,,,,,,,,,,,,,651.0927475001663,None,651.0927475001663,None,650.5924060000107,None,j,0.45121389999985695,651.0927475001663,None,,,,,,,,,,,,,i,001,2021_Jul_05_1102,toilet,2021.1.3,99.92325895767131,
180,0,-4,4,0.97,,,,,2,0,2,0,0,16,16,44,,,,,,,,,,,,,,,,,,,,,,,652.5537316000555,None,652.5537316000555,None,652.0533996000886,None,f,0.5743038000073284,652.5537316000555,None,,,,,,,,,,,,,i,001,2021_Jul_05_1102,toilet,2021.1.3,99.92325895767131,
180,0,-4,4,1.0,,,,,2,0,2,0,0,17,17,45,,,,,,,,,,,,,,,,,,,,,,,654.1448906001169,None,654.1448906001169,None,653.6445599000435,None,f,0.6470730998553336,654.1448906001169,None,,,,,,,,,,,,,i,001,2021_Jul_05_1102,toilet,2021.1.3,99.92325895767131,
0,180,-4,4,1.03,,,,,2,0,2,0,0,18,18,18,,,,,,,,,,,,,,,,,,,,,,,655.815943100024,None,655.815943100024,None,655.3156407000497,None,j,0.3520182000938803,655.815943100024,None,,,,,,,,,,,,,i,001,2021_Jul_05_1102,toilet,2021.1.3,99.92325895767131,
180,180,4,-4,1.0,,,,,2,0,2,0,0,19,19,38,,,,,,,,,,,,,,,,,,,,,,,657.1768684000708,None,657.1768684000708,None,656.6765274000354,None,f,0.3990426000673324,657.1768684000708,None,,,,,,,,,,,,,i,001,2021_Jul_05_1102,toilet,2021.1.3,99.92325895767131,
0,180,-4,4,0.94,,,,,2,0,2,0,0,20,20,15,,,,,,,,,,,,,,,,,,,,,,,658.5778122001793,None,658.5778122001793,None,658.0774783999659,None,f,0.7262069999706,658.5778122001793,None,,,,,,,,,,,,,i,001,2021_Jul_05_1102,toilet,2021.1.3,99.92325895767131,
180,0,4,-4,1.15,,,,,2,0,2,0,0,21,21,55,,,,,,,,,,,,,,,,,,,,,,,660.3189922999591,None,660.3189922999591,None,659.8186521001626,None,f,0.40895289997570217,660.3189922999591,None,,,,,,,,,,,,,i,001,2021_Jul_05_1102,toilet,2021.1.3,99.92325895767131,
180,180,-4,4,1.03,,,,,2,0,2,0,0,22,22,32,,,,,,,,,,,,,,,,,,,,,,,661.7399941000622,None,661.7399941000622,None,661.2396132000722,None,j,0.6039538998156786,661.7399941000622,None,,,,,,,,,,,,,i,001,2021_Jul_05_1102,toilet,2021.1.3,99.92325895767131,
0,180,4,-4,1.03,,,,,2,0,2,0,0,23,23,25,,,,,,,,,,,,,,,,,,,,,,,663.3510463000275,None,663.3510463000275,None,662.850704499986,None,f,0.528831500094384,663.3510463000275,None,,,,,,,,,,,,,i,001,2021_Jul_05_1102,toilet,2021.1.3,99.92325895767131,
0,180,-4,4,1.06,,,,,2,0,2,0,0,24,24,19,,,,,,,,,,,,,,,,,,,,,,,664.8820813000202,None,664.8820813000202,None,664.3817435000092,None,j,0.43779810005798936,664.8820813000202,None,,,,,,,,,,,,,i,001,2021_Jul_05_1102,toilet,2021.1.3,99.92325895767131,
0,0,-4,4,1.03,,,,,2,0,2,0,0,25,25,4,,,,,,,,,,,,,,,,,,,,,,,666.3230626001023,None,666.3230626001023,None,665.8227206000593,None,j,0.40500569995492697,666.3230626001023,None,,,,,,,,,,,,,i,001,2021_Jul_05_1102,toilet,2021.1.3,99.92325895767131,
180,0,-4,4,0.94,,,,,2,0,2,0,0,26,26,43,,,,,,,,,,,,,,,,,,,,,,,667.7540292001795,None,667.7540292001795,None,667.2536863000132,None,f,0.41401519998908043,667.7540292001795,None,,,,,,,,,,,,,i,001,2021_Jul_05_1102,toilet,2021.1.3,99.92325895767131,
0,0,4,-4,1.03,,,,,2,0,2,0,0,27,27,11,,,,,,,,,,,,,,,,,,,,,,,669.1951002001297,None,669.1951002001297,None,668.6946815000847,None,j,0.5248972999397665,669.1951002001297,None,,,,,,,,,,,,,i,001,2021_Jul_05_1102,toilet,2021.1.3,99.92325895767131,
180,180,-4,4,1.15,,,,,2,0,2,0,0,28,28,34,,,,,,,,,,,,,,,,,,,,,,,670.7360517999623,None,670.7360517999623,None,670.2357091000304,None,j,0.45582769997417927,670.7360517999623,None,,,,,,,,,,,,,i,001,2021_Jul_05_1102,toilet,2021.1.3,99.92325895767131,
180,180,-4,4,1.06,,,,,2,0,2,0,0,29,29,33,,,,,,,,,,,,,,,,,,,,,,,672.1970353999641,None,672.1970353999641,None,671.6966965000611,None,j,0.515004700049758,672.1970353999641,None,,,,,,,,,,,,,i,001,2021_Jul_05_1102,toilet,2021.1.3,99.92325895767131,
0,180,-4,4,1.0,,,,,2,0,2,0,0,30,30,17,,,,,,,,,,,,,,,,,,,,,,,673.7380760000087,None,673.7380760000087,None,673.2377422000282,None,j,0.5418505000416189,673.7380760000087,None,,,,,,,,,,,,,i,001,2021_Jul_05_1102,toilet,2021.1.3,99.92325895767131,
0,0,-4,4,1.15,,,,,2,0,2,0,0,31,31,6,,,,,,,,,,,,,,,,,,,,,,,675.2891323000658,None,675.2891323000658,None,674.788791500032,None,j,0.44686320004984736,675.2891323000658,None,,,,,,,,,,,,,i,001,2021_Jul_05_1102,toilet,2021.1.3,99.92325895767131,
0,180,4,-4,0.85,,,,,2,0,2,0,0,32,32,21,,,,,,,,,,,,,,,,,,,,,,,676.7502073999494,None,676.7502073999494,None,676.2498521001544,None,j,0.39378330018371344,676.7502073999494,None,,,,,,,,,,,,,i,001,2021_Jul_05_1102,toilet,2021.1.3,99.92325895767131,
180,0,-4,4,1.06,,,,,2,0,2,0,0,33,33,47,,,,,,,,,,,,,,,,,,,,,,,678.1610749999527,None,678.1610749999527,None,677.660740399966,None,j,0.5187548999674618,678.1610749999527,None,,,,,,,,,,,,,i,001,2021_Jul_05_1102,toilet,2021.1.3,99.92325895767131,
180,0,4,-4,1.0,,,,,2,0,2,0,0,34,34,52,,,,,,,,,,,,,,,,,,,,,,,679.6821053000167,None,679.6821053000167,None,679.1817646999843,None,j,0.4379557000938803,679.6821053000167,None,,,,,,,,,,,,,i,001,2021_Jul_05_1102,toilet,2021.1.3,99.92325895767131,
0,180,4,-4,0.94,,,,,2,0,2,0,0,35,35,22,,,,,,,,,,,,,,,,,,,,,,,681.1330895000137,None,681.1330895000137,None,680.6327484999783,None,j,0.5869366999249905,681.1330895000137,None,,,,,,,,,,,,,i,001,2021_Jul_05_1102,toilet,2021.1.3,99.92325895767131,
0,180,4,-4,1.15,,,,,2,0,2,0,0,36,36,27,,,,,,,,,,,,,,,,,,,,,,,682.7341718999669,None,682.7341718999669,None,682.2338318000548,None,f,0.5217477998230606,682.7341718999669,None,,,,,,,,,,,,,i,001,2021_Jul_05_1102,toilet,2021.1.3,99.92325895767131,
180,0,-4,4,0.85,,,,,2,0,2,0,0,37,37,42,,,,,,,,,,,,,,,,,,,,,,,684.2552823000588,None,684.2552823000588,None,683.7548601001035,None,f,0.4086315999738872,684.2552823000588,None,,,,,,,,,,,,,i,001,2021_Jul_05_1102,toilet,2021.1.3,99.92325895767131,
180,0,4,-4,0.97,,,,,2,0,2,0,0,38,38,51,,,,,,,,,,,,,,,,,,,,,,,685.6761668999679,None,685.6761668999679,None,685.1758266000543,None,j,0.36380289983935654,685.6761668999679,None,,,,,,,,,,,,,i,001,2021_Jul_05_1102,toilet,2021.1.3,99.92325895767131,
180,180,-4,4,0.97,,,,,2,0,2,0,0,39,39,30,,,,,,,,,,,,,,,,,,,,,,,687.0470915001351,None,687.0470915001351,None,686.5467681000009,None,f,0.4168777000159025,687.0470915001351,None,,,,,,,,,,,,,i,001,2021_Jul_05_1102,toilet,2021.1.3,99.92325895767131,
0,180,4,-4,1.06,,,,,2,0,2,0,0,40,40,26,,,,,,,,,,,,,,,,,,,,,,,688.4680551001802,None,688.4680551001802,None,687.9777313000523,None,f,0.5797828000504524,688.4680551001802,None,,,,,,,,,,,,,i,001,2021_Jul_05_1102,toilet,2021.1.3,99.92325895767131,
180,0,-4,4,1.03,,,,,2,0,2,0,0,41,41,46,,,,,,,,,,,,,,,,,,,,,,,690.0592201000545,None,690.0592201000545,None,689.5587967000902,None,f,0.8446463001891971,690.0592201000545,None,,,,,,,,,,,,,i,001,2021_Jul_05_1102,toilet,2021.1.3,99.92325895767131,
0,0,4,-4,1.0,,,,,2,0,2,0,0,42,42,10,,,,,,,,,,,,,,,,,,,,,,,691.9103868999518,None,691.9103868999518,None,691.4101409001742,None,j,0.6254555000923574,691.9103868999518,None,,,,,,,,,,,,,i,001,2021_Jul_05_1102,toilet,2021.1.3,99.92325895767131,
180,180,-4,4,1.0,,,,,2,0,2,0,0,43,43,31,,,,,,,,,,,,,,,,,,,,,,,693.541463600006,None,693.541463600006,None,693.0411843999755,None,j,0.41835270007140934,693.541463600006,None,,,,,,,,,,,,,i,001,2021_Jul_05_1102,toilet,2021.1.3,99.92325895767131,
180,180,4,-4,0.94,,,,,2,0,2,0,0,44,44,36,,,,,,,,,,,,,,,,,,,,,,,694.9624515001196,None,694.9624515001196,None,694.4621166000143,None,j,0.40554760000668466,694.9624515001196,None,,,,,,,,,,,,,i,001,2021_Jul_05_1102,toilet,2021.1.3,99.92325895767131,
180,180,4,-4,1.06,,,,,2,0,2,0,0,45,45,40,,,,,,,,,,,,,,,,,,,,,,,696.3934216001071,None,696.3934216001071,None,695.8930848001037,None,f,0.5745681999251246,696.3934216001071,None,,,,,,,,,,,,,i,001,2021_Jul_05_1102,toilet,2021.1.3,99.92325895767131,
180,0,4,-4,0.85,,,,,2,0,2,0,0,46,46,49,,,,,,,,,,,,,,,,,,,,,,,697.9845003001392,None,697.9845003001392,None,697.4842008999549,None,j,0.3593675000593066,697.9845003001392,None,,,,,,,,,,,,,i,001,2021_Jul_05_1102,toilet,2021.1.3,99.92325895767131,
0,0,4,-4,0.94,,,,,2,0,2,0,0,47,47,8,,,,,,,,,,,,,,,,,,,,,,,699.3554340000264,None,699.3554340000264,None,698.8551678999793,None,j,0.49259839998558164,699.3554340000264,None,,,,,,,,,,,,,i,001,2021_Jul_05_1102,toilet,2021.1.3,99.92325895767131,
0,0,-4,4,0.94,,,,,2,0,2,0,0,48,48,1,,,,,,,,,,,,,,,,,,,,,,,700.8564450000413,None,700.8564450000413,None,700.3561043001246,None,f,0.6234756999183446,700.8564450000413,None,,,,,,,,,,,,,i,001,2021_Jul_05_1102,toilet,2021.1.3,99.92325895767131,
0,0,-4,4,1.0,,,,,2,0,2,0,0,49,49,3,,,,,,,,,,,,,,,,,,,,,,,702.4875482001808,None,702.4875482001808,None,701.9872222000267,None,j,0.43244600016623735,702.4875482001808,None,,,,,,,,,,,,,i,001,2021_Jul_05_1102,toilet,2021.1.3,99.92325895767131,
180,180,4,-4,1.15,,,,,2,0,2,0,0,50,50,41,,,,,,,,,,,,,,,,,,,,,,,703.9485381999984,None,703.9485381999984,None,703.4481963999569,None,f,0.34728160011582077,703.9485381999984,None,,,,,,,,,,,,,i,001,2021_Jul_05_1102,toilet,2021.1.3,99.92325895767131,
180,180,4,-4,0.97,,,,,2,0,2,0,0,51,51,37,,,,,,,,,,,,,,,,,,,,,,,705.2995450000744,None,705.2995450000744,None,704.7991153001785,None,j,0.38837150018662214,705.2995450000744,None,,,,,,,,,,,,,i,001,2021_Jul_05_1102,toilet,2021.1.3,99.92325895767131,
0,0,4,-4,1.06,,,,,2,0,2,0,0,52,52,12,,,,,,,,,,,,,,,,,,,,,,,706.7004909000825,None,706.7004909000825,None,706.2000661001075,None,f,0.5073513998650014,706.7004909000825,None,,,,,,,,,,,,,i,001,2021_Jul_05_1102,toilet,2021.1.3,99.92325895767131,
0,0,-4,4,0.85,,,,,2,0,2,0,0,53,53,0,,,,,,,,,,,,,,,,,,,,,,,708.2114214000758,None,708.2114214000758,None,707.7111154999584,None,f,0.40435880003497005,708.2114214000758,None,,,,,,,,,,,,,i,001,2021_Jul_05_1102,toilet,2021.1.3,99.92325895767131,
0,180,-4,4,0.97,,,,,2,0,2,0,0,54,54,16,,,,,,,,,,,,,,,,,,,,,,,709.6223910001572,None,709.6223910001572,None,709.1220434000716,None,j,0.4655435001477599,709.6223910001572,None,,,,,,,,,,,,,i,001,2021_Jul_05_1102,toilet,2021.1.3,99.92325895767131,
180,180,4,-4,1.03,,,,,2,0,2,0,0,55,55,39,,,,,,,,,,,,,,,,,,,,,,,711.1133885001764,None,711.1133885001764,None,710.613051700173,None,f,0.3025130999740213,711.1133885001764,None,,,,,,,,,,,,,i,001,2021_Jul_05_1102,toilet,2021.1.3,99.92325895767131,
0,180,-4,4,0.85,,,,,2,0,2,0,1,0,56,14,,,,,,,,,,,,,,,,,,,,,,,712.434284399962,None,712.434284399962,None,711.9339473999571,None,f,0.5337596000172198,712.434284399962,None,,,,,,,,,,,,,i,001,2021_Jul_05_1102,toilet,2021.1.3,99.92325895767131,
0,0,-4,4,1.03,,,,,2,0,2,0,1,1,57,4,,,,,,,,,,,,,,,,,,,,,,,713.9854113999754,None,713.9854113999754,None,713.4850062001497,None,j,0.4064299000892788,713.9854113999754,None,,,,,,,,,,,,,i,001,2021_Jul_05_1102,toilet,2021.1.3,99.92325895767131,
0,180,-4,4,1.06,,,,,2,0,2,0,1,2,58,19,,,,,,,,,,,,,,,,,,,,,,,715.4062994001433,None,715.4062994001433,None,714.9059608001262,None,j,0.42556330002844334,715.4062994001433,None,,,,,,,,,,,,,i,001,2021_Jul_05_1102,toilet,2021.1.3,99.92325895767131,
180,0,4,-4,1.06,,,,,2,0,2,0,1,3,59,54,,,,,,,,,,,,,,,,,,,,,,,716.8372677001171,None,716.8372677001171,None,716.3369343001395,None,f,0.450595400063321,716.8372677001171,None,,,,,,,,,,,,,i,001,2021_Jul_05_1102,toilet,2021.1.3,99.92325895767131,
0,0,-4,4,0.85,,,,,2,0,2,0,1,4,60,0,,,,,,,,,,,,,,,,,,,,,,,718.2882481000852,None,718.2882481000852,None,717.7879097999539,None,f,0.40778420004062355,718.2882481000852,None,,,,,,,,,,,,,i,001,2021_Jul_05_1102,toilet,2021.1.3,99.92325895767131,
180,0,4,-4,1.15,,,,,2,0,2,0,1,5,61,55,,,,,,,,,,,,,,,,,,,,,,,719.7093240001705,None,719.7093240001705,None,719.2088746000081,None,f,0.5384772999677807,719.7093240001705,None,,,,,,,,,,,,,i,001,2021_Jul_05_1102,toilet,2021.1.3,99.92325895767131,
0,0,4,-4,1.15,,,,,2,0,2,0,1,6,62,13,,,,,,,,,,,,,,,,,,,,,,,721.2503450999502,None,721.2503450999502,None,720.7500157000031,None,f,0.5335430998820812,721.2503450999502,None,,,,,,,,,,,,,i,001,2021_Jul_05_1102,toilet,2021.1.3,99.92325895767131,
180,0,-4,4,0.85,,,,,2,0,2,0,1,7,63,42,,,,,,,,,,,,,,,,,,,,,,,722.7913000001572,None,722.7913000001572,None,722.2909721999895,None,f,0.40049459994770586,722.7913000001572,None,,,,,,,,,,,,,i,001,2021_Jul_05_1102,toilet,2021.1.3,99.92325895767131,
0,0,4,-4,0.97,,,,,2,0,2,0,1,8,64,9,,,,,,,,,,,,,,,,,,,,,,,724.1922474000603,None,724.1922474000603,None,723.6919087001588,None,j,0.3596218000166118,724.1922474000603,None,,,,,,,,,,,,,i,001,2021_Jul_05_1102,toilet,2021.1.3,99.92325895767131,
180,180,4,-4,1.0,,,,,2,0,2,0,1,9,65,38,,,,,,,,,,,,,,,,,,,,,,,725.5631876999978,None,725.5631876999978,None,725.0628375001252,None,f,0.4287371998652816,725.5631876999978,None,,,,,,,,,,,,,i,001,2021_Jul_05_1102,toilet,2021.1.3,99.92325895767131,
180,0,4,-4,0.85,,,,,2,0,2,0,1,10,66,49,,,,,,,,,,,,,,,,,,,,,,,727.0041549999733,None,727.0041549999733,None,726.5038113000337,None,j,0.39566859998740256,727.0041549999733,None,,,,,,,,,,,,,i,001,2021_Jul_05_1102,toilet,2021.1.3,99.92325895767131,
180,180,-4,4,1.15,,,,,2,0,2,0,1,11,67,34,,,,,,,,,,,,,,,,,,,,,,,728.4051884000655,None,728.4051884000655,None,727.9048519001808,None,j,0.5147861000150442,728.4051884000655,None,,,,,,,,,,,,,i,001,2021_Jul_05_1102,toilet,2021.1.3,99.92325895767131,
0,180,4,-4,1.03,,,,,2,0,2,0,1,12,68,25,,,,,,,,,,,,,,,,,,,,,,,729.926133000059,None,729.926133000059,None,729.4257915001363,None,f,0.4016488001216203,729.926133000059,None,,,,,,,,,,,,,i,001,2021_Jul_05_1102,toilet,2021.1.3,99.92325895767131,
0,180,-4,4,1.0,,,,,2,0,2,0,1,13,69,17,,,,,,,,,,,,,,,,,,,,,,,731.3270770001691,None,731.3270770001691,None,730.8267364001367,None,j,0.3287537000142038,731.3270770001691,None,,,,,,,,,,,,,i,001,2021_Jul_05_1102,toilet,2021.1.3,99.92325895767131,
180,180,-4,4,0.85,,,,,2,0,2,0,1,14,70,28,,,,,,,,,,,,,,,,,,,,,,,732.6579774999991,None,732.6579774999991,None,732.1576442001387,None,f,0.629792399937287,732.6579774999991,None,,,,,,,,,,,,,i,001,2021_Jul_05_1102,toilet,2021.1.3,99.92325895767131,
0,180,-4,4,0.97,,,,,2,0,2,0,1,15,71,16,,,,,,,,,,,,,,,,,,,,,,,734.2891626001801,None,734.2891626001801,None,733.7887435001321,None,f,0.5986998002044857,734.2891626001801,None,,,,,,,,,,,,,i,001,2021_Jul_05_1102,toilet,2021.1.3,99.92325895767131,
0,0,4,-4,1.03,,,,,2,0,2,0,1,16,72,11,,,,,,,,,,,,,,,,,,,,,,,735.9001742999535,None,735.9001742999535,None,735.3999175000936,None,j,0.45963609986938536,735.9001742999535,None,,,,,,,,,,,,,i,001,2021_Jul_05_1102,toilet,2021.1.3,99.92325895767131,
180,0,4,-4,1.03,,,,,2,0,2,0,1,17,73,53,,,,,,,,,,,,,,,,,,,,,,,737.3712086000014,None,737.3712086000014,None,736.8708351000678,None,j,0.7806450999341905,737.3712086000014,None,,,,,,,,,,,,,i,001,2021_Jul_05_1102,toilet,2021.1.3,99.92325895767131,
0,0,-4,4,0.94,,,,,2,0,2,0,1,18,74,1,,,,,,,,,,,,,,,,,,,,,,,739.1523812001105,None,739.1523812001105,None,738.6520390999503,None,f,0.43954790011048317,739.1523812001105,None,,,,,,,,,,,,,i,001,2021_Jul_05_1102,toilet,2021.1.3,99.92325895767131,
0,180,-4,4,1.15,,,,,2,0,2,0,1,19,75,20,,,,,,,,,,,,,,,,,,,,,,,740.6033596000634,None,740.6033596000634,None,740.1030211001635,None,j,0.3966610999777913,740.6033596000634,None,,,,,,,,,,,,,i,001,2021_Jul_05_1102,toilet,2021.1.3,99.92325895767131,
180,180,4,-4,0.85,,,,,2,0,2,0,1,20,76,35,,,,,,,,,,,,,,,,,,,,,,,742.0243194000795,None,742.0243194000795,None,741.5239832000807,None,j,0.38361450005322695,742.0243194000795,None,,,,,,,,,,,,,i,001,2021_Jul_05_1102,toilet,2021.1.3,99.92325895767131,
0,0,-4,4,0.97,,,,,2,0,2,0,1,21,77,2,,,,,,,,,,,,,,,,,,,,,,,743.4252675999887,None,743.4252675999887,None,742.925014300039,None,f,0.3745942998211831,743.4252675999887,None,,,,,,,,,,,,,i,001,2021_Jul_05_1102,toilet,2021.1.3,99.92325895767131,
180,0,-4,4,0.94,,,,,2,0,2,0,1,22,78,43,,,,,,,,,,,,,,,,,,,,,,,744.8162136001047,None,744.8162136001047,None,744.3158730000723,None,f,0.47159009985625744,744.8162136001047,None,,,,,,,,,,,,,i,001,2021_Jul_05_1102,toilet,2021.1.3,99.92325895767131,
180,0,-4,4,1.03,,,,,2,0,2,0,1,23,79,46,,,,,,,,,,,,,,,,,,,,,,,746.2972190000582,None,746.2972190000582,None,745.796874599997,None,f,0.7346898999530822,746.2972190000582,None,,,,,,,,,,,,,i,001,2021_Jul_05_1102,toilet,2021.1.3,99.92325895767131,
180,180,-4,4,0.94,,,,,2,0,2,0,1,24,80,29,,,,,,,,,,,,,,,,,,,,,,,748.0484013000969,None,748.0484013000969,None,747.54806010006,None,f,0.5994384000077844,748.0484013000969,None,,,,,,,,,,,,,i,001,2021_Jul_05_1102,toilet,2021.1.3,99.92325895767131,
180,180,4,-4,0.94,,,,,2,0,2,0,1,25,81,36,,,,,,,,,,,,,,,,,,,,,,,749.6595803999808,None,749.6595803999808,None,749.1591509000864,None,j,0.49234799994155765,749.6595803999808,None,,,,,,,,,,,,,i,001,2021_Jul_05_1102,toilet,2021.1.3,99.92325895767131,
180,0,4,-4,0.97,,,,,2,0,2,0,1,26,82,51,,,,,,,,,,,,,,,,,,,,,,,751.1805583001114,None,751.1805583001114,None,750.6802763000596,None,j,0.5073752000462264,751.1805583001114,None,,,,,,,,,,,,,i,001,2021_Jul_05_1102,toilet,2021.1.3,99.92325895767131,
0,180,4,-4,0.97,,,,,2,0,2,0,1,27,83,23,,,,,,,,,,,,,,,,,,,,,,,752.6915810999926,None,752.6915810999926,None,752.1912064000499,None,f,0.45228799991309643,752.6915810999926,None,,,,,,,,,,,,,i,001,2021_Jul_05_1102,toilet,2021.1.3,99.92325895767131,
180,0,-4,4,0.97,,,,,2,0,2,0,1,28,84,44,,,,,,,,,,,,,,,,,,,,,,,754.1525298000779,None,754.1525298000779,None,753.6522000001278,None,f,0.5434275998268276,754.1525298000779,None,,,,,,,,,,,,,i,001,2021_Jul_05_1102,toilet,2021.1.3,99.92325895767131,
180,180,-4,4,1.0,,,,,2,0,2,0,1,29,85,31,,,,,,,,,,,,,,,,,,,,,,,755.7135920000728,None,755.7135920000728,None,755.2132534000557,None,j,0.5983523998875171,755.7135920000728,None,,,,,,,,,,,,,i,001,2021_Jul_05_1102,toilet,2021.1.3,99.92325895767131,
180,180,-4,4,1.06,,,,,2,0,2,0,1,30,86,33,,,,,,,,,,,,,,,,,,,,,,,757.3247752001043,None,757.3247752001043,None,756.824347200105,None,j,0.4271160999778658,757.3247752001043,None,,,,,,,,,,,,,i,001,2021_Jul_05_1102,toilet,2021.1.3,99.92325895767131,
0,0,4,-4,0.94,,,,,2,0,2,0,1,31,87,8,,,,,,,,,,,,,,,,,,,,,,,758.7756728001405,None,758.7756728001405,None,758.2754196000751,None,j,0.624367699958384,758.7756728001405,None,,,,,,,,,,,,,i,001,2021_Jul_05_1102,toilet,2021.1.3,99.92325895767131,
180,0,-4,4,1.0,,,,,2,0,2,0,1,32,88,45,,,,,,,,,,,,,,,,,,,,,,,760.4067693999968,None,760.4067693999968,None,759.9064281000756,None,j,0.41723379981704056,760.4067693999968,None,,,,,,,,,,,,,i,001,2021_Jul_05_1102,toilet,2021.1.3,99.92325895767131,
0,0,4,-4,1.06,,,,,2,0,2,0,1,33,89,12,,,,,,,,,,,,,,,,,,,,,,,761.8477486001793,None,761.8477486001793,None,761.34740840015,None,f,0.6722057000733912,761.8477486001793,None,,,,,,,,,,,,,i,001,2021_Jul_05_1102,toilet,2021.1.3,99.92325895767131,
0,0,4,-4,0.85,,,,,2,0,2,0,1,34,90,7,,,,,,,,,,,,,,,,,,,,,,,763.5388944000006,None,763.5388944000006,None,763.038537699962,None,j,0.436857599997893,763.5388944000006,None,,,,,,,,,,,,,i,001,2021_Jul_05_1102,toilet,2021.1.3,99.92325895767131,
180,180,4,-4,1.15,,,,,2,0,2,0,1,35,91,41,,,,,,,,,,,,,,,,,,,,,,,764.9799208999611,None,764.9799208999611,None,764.479623200139,None,f,0.40400839992798865,764.9799208999611,None,,,,,,,,,,,,,i,001,2021_Jul_05_1102,toilet,2021.1.3,99.92325895767131,
180,0,4,-4,1.0,,,,,2,0,2,0,1,36,92,52,,,,,,,,,,,,,,,,,,,,,,,766.390821200097,None,766.390821200097,None,765.8905217000283,None,j,0.36893299990333617,766.390821200097,None,,,,,,,,,,,,,i,001,2021_Jul_05_1102,toilet,2021.1.3,99.92325895767131,
180,0,4,-4,0.94,,,,,2,0,2,0,1,37,93,50,,,,,,,,,,,,,,,,,,,,,,,767.7617493001744,None,767.7617493001744,None,767.2614111001603,None,j,0.48600499983876944,767.7617493001744,None,,,,,,,,,,,,,i,001,2021_Jul_05_1102,toilet,2021.1.3,99.92325895767131,
180,0,-4,4,1.15,,,,,2,0,2,0,1,38,94,48,,,,,,,,,,,,,,,,,,,,,,,769.2527585001662,None,769.2527585001662,None,768.7524204000365,None,f,0.49904839997179806,769.2527585001662,None,,,,,,,,,,,,,i,001,2021_Jul_05_1102,toilet,2021.1.3,99.92325895767131,
180,180,4,-4,0.97,,,,,2,0,2,0,1,39,95,37,,,,,,,,,,,,,,,,,,,,,,,770.7637843000703,None,770.7637843000703,None,770.2634436001536,None,j,0.4120724000968039,770.7637843000703,None,,,,,,,,,,,,,i,001,2021_Jul_05_1102,toilet,2021.1.3,99.92325895767131,
0,180,4,-4,0.85,,,,,2,0,2,0,1,40,96,21,,,,,,,,,,,,,,,,,,,,,,,772.1948230001144,None,772.1948230001144,None,771.6944842000958,None,j,0.4210063999053091,772.1948230001144,None,,,,,,,,,,,,,i,001,2021_Jul_05_1102,toilet,2021.1.3,99.92325895767131,
0,0,-4,4,1.0,,,,,2,0,2,0,1,41,97,3,,,,,,,,,,,,,,,,,,,,,,,773.6257222001441,None,773.6257222001441,None,773.125460700132,None,j,0.6541147001553327,773.6257222001441,None,,,,,,,,,,,,,i,001,2021_Jul_05_1102,toilet,2021.1.3,99.92325895767131,
0,0,-4,4,1.06,,,,,2,0,2,0,1,42,98,5,,,,,,,,,,,,,,,,,,,,,,,775.2868431999814,None,775.2868431999814,None,774.7865051999688,None,j,0.4168976000510156,775.2868431999814,None,,,,,,,,,,,,,i,001,2021_Jul_05_1102,toilet,2021.1.3,99.92325895767131,
0,180,4,-4,1.0,,,,,2,0,2,0,1,43,99,24,,,,,,,,,,,,,,,,,,,,,,,776.7078048000112,None,776.7078048000112,None,776.2074689001311,None,f,0.4841040999162942,776.7078048000112,None,,,,,,,,,,,,,i,001,2021_Jul_05_1102,toilet,2021.1.3,99.92325895767131,
0,0,4,-4,1.0,,,,,2,0,2,0,1,44,100,10,,,,,,,,,,,,,,,,,,,,,,,778.2188296001405,None,778.2188296001405,None,777.718492400134,None,f,0.3810375998727977,778.2188296001405,None,,,,,,,,,,,,,i,001,2021_Jul_05_1102,toilet,2021.1.3,99.92325895767131,
180,180,-4,4,0.97,,,,,2,0,2,0,1,45,101,30,,,,,,,,,,,,,,,,,,,,,,,779.6097691999748,None,779.6097691999748,None,779.1095145000145,None,f,0.4300349000841379,779.6097691999748,None,,,,,,,,,,,,,i,001,2021_Jul_05_1102,toilet,2021.1.3,99.92325895767131,
0,180,-4,4,0.94,,,,,2,0,2,0,1,46,102,15,,,,,,,,,,,,,,,,,,,,,,,781.0507465000264,None,781.0507465000264,None,780.5504479999654,None,j,0.4609738001599908,781.0507465000264,None,,,,,,,,,,,,,i,001,2021_Jul_05_1102,toilet,2021.1.3,99.92325895767131,
0,0,-4,4,1.15,,,,,2,0,2,0,1,47,103,6,,,,,,,,,,,,,,,,,,,,,,,782.5117353999522,None,782.5117353999522,None,782.0114275000524,None,j,0.42417840007692575,782.5117353999522,None,,,,,,,,,,,,,i,001,2021_Jul_05_1102,toilet,2021.1.3,99.92325895767131,
180,0,-4,4,1.06,,,,,2,0,2,0,1,48,104,47,,,,,,,,,,,,,,,,,,,,,,,783.9527122001164,None,783.9527122001164,None,783.452371600084,None,j,0.4711557999253273,783.9527122001164,None,,,,,,,,,,,,,i,001,2021_Jul_05_1102,toilet,2021.1.3,99.92325895767131,
0,180,4,-4,1.06,,,,,2,0,2,0,1,49,105,26,,,,,,,,,,,,,,,,,,,,,,,785.4337145001628,None,785.4337145001628,None,784.9333787001669,None,f,0.4461631001904607,785.4337145001628,None,,,,,,,,,,,,,i,001,2021_Jul_05_1102,toilet,2021.1.3,99.92325895767131,
180,180,-4,4,1.03,,,,,2,0,2,0,1,50,106,32,,,,,,,,,,,,,,,,,,,,,,,786.9047874000389,None,786.9047874000389,None,786.4043728001416,None,j,0.4631192001979798,786.9047874000389,None,,,,,,,,,,,,,i,001,2021_Jul_05_1102,toilet,2021.1.3,99.92325895767131,
180,180,4,-4,1.03,,,,,2,0,2,0,1,51,107,39,,,,,,,,,,,,,,,,,,,,,,,788.3857366000302,None,788.3857366000302,None,787.8853762999643,None,f,0.4060117001645267,788.3857366000302,None,,,,,,,,,,,,,i,001,2021_Jul_05_1102,toilet,2021.1.3,99.92325895767131,
180,180,4,-4,1.06,,,,,2,0,2,0,1,52,108,40,,,,,,,,,,,,,,,,,,,,,,,789.7966885000933,None,789.7966885000933,None,789.296332300175,None,f,0.48304630001075566,789.7966885000933,None,,,,,,,,,,,,,i,001,2021_Jul_05_1102,toilet,2021.1.3,99.92325895767131,
0,180,4,-4,1.15,,,,,2,0,2,0,1,53,109,27,,,,,,,,,,,,,,,,,,,,,,,791.2876856001094,None,791.2876856001094,None,790.7873419001698,None,f,0.51212970004417,791.2876856001094,None,,,,,,,,,,,,,i,001,2021_Jul_05_1102,toilet,2021.1.3,99.92325895767131,
0,180,4,-4,0.94,,,,,2,0,2,0,1,54,110,22,,,,,,,,,,,,,,,,,,,,,,,792.8187158000655,None,792.8187158000655,None,792.3183768000454,None,j,0.4372284999117255,792.8187158000655,None,,,,,,,,,,,,,i,001,2021_Jul_05_1102,toilet,2021.1.3,99.92325895767131,
0,180,-4,4,1.03,,,,,2,0,2,0,1,55,111,18,,,,,,,,,,,,,,,,,,,,,,,794.2696971001569,None,794.2696971001569,None,793.7694566999562,None,j,0.42613450018689036,794.2696971001569,None,,,,,,,,,,,,,i,001,2021_Jul_05_1102,toilet,2021.1.3,99.92325895767131,
,,,,,,,,,2,0,2,0,,,,,,,,,,,,,,,,,,,,,,,,,,,,,,,,,,,,,794.7200407001656,None,space,1.5117529998533428,794.7200407001656,None,,,,,,,i,001,2021_Jul_05_1102,toilet,2021.1.3,99.92325895767131,
0,0,-4,4,1.0,,,,,3,0,3,0,0,0,0,3,,,,,,,,,,,,,,,,,796.2510934001766,None,space,1.6608565000351518,796.2510934001766,None,798.9328568000346,None,798.9328568000346,None,798.4325168000069,None,f,0.5629790001548827,798.9328568000346,None,,,,,,,,,,,,,i,001,2021_Jul_05_1102,toilet,2021.1.3,99.92325895767131,
180,0,-4,4,1.03,,,,,3,0,3,0,0,1,1,46,,,,,,,,,,,,,,,,,,,,,,,800.5139266001061,None,800.5139266001061,None,800.013592600124,None,f,0.4059816999360919,800.5139266001061,None,,,,,,,,,,,,,i,001,2021_Jul_05_1102,toilet,2021.1.3,99.92325895767131,
180,180,-4,4,1.06,,,,,3,0,3,0,0,2,2,33,,,,,,,,,,,,,,,,,,,,,,,801.9449829000514,None,801.9449829000514,None,801.4445543000475,None,j,0.4947534999810159,801.9449829000514,None,,,,,,,,,,,,,i,001,2021_Jul_05_1102,toilet,2021.1.3,99.92325895767131,
180,0,-4,4,1.0,,,,,3,0,3,0,0,3,3,45,,,,,,,,,,,,,,,,,,,,,,,803.45592460013,None,803.45592460013,None,802.9555761001538,None,f,0.4078303000424057,803.45592460013,None,,,,,,,,,,,,,i,001,2021_Jul_05_1102,toilet,2021.1.3,99.92325895767131,
0,180,4,-4,1.03,,,,,3,0,3,0,0,4,4,25,,,,,,,,,,,,,,,,,,,,,,,804.8668747001793,None,804.8668747001793,None,804.3665610000025,None,f,0.38883750000968575,804.8668747001793,None,,,,,,,,,,,,,i,001,2021_Jul_05_1102,toilet,2021.1.3,99.92325895767131,
180,180,-4,4,1.03,,,,,3,0,3,0,0,5,5,32,,,,,,,,,,,,,,,,,,,,,,,806.2578159000259,None,806.2578159000259,None,805.7574748001061,None,j,0.5340088999364525,806.2578159000259,None,,,,,,,,,,,,,i,001,2021_Jul_05_1102,toilet,2021.1.3,99.92325895767131,
0,0,-4,4,1.03,,,,,3,0,3,0,0,6,6,4,,,,,,,,,,,,,,,,,,,,,,,807.7988589999732,None,807.7988589999732,None,807.2985181000549,None,j,0.5770287001505494,807.7988589999732,None,,,,,,,,,,,,,i,001,2021_Jul_05_1102,toilet,2021.1.3,99.92325895767131,
180,180,-4,4,0.94,,,,,3,0,3,0,0,7,7,29,,,,,,,,,,,,,,,,,,,,,,,809.3799364001025,None,809.3799364001025,None,808.8896934001241,None,f,0.3718495999928564,809.3799364001025,None,,,,,,,,,,,,,i,001,2021_Jul_05_1102,toilet,2021.1.3,99.92325895767131,
180,0,4,-4,0.94,,,,,3,0,3,0,0,8,8,50,,,,,,,,,,,,,,,,,,,,,,,810.7608652000781,None,810.7608652000781,None,810.2605626999866,None,j,0.4629029999487102,810.7608652000781,None,,,,,,,,,,,,,i,001,2021_Jul_05_1102,toilet,2021.1.3,99.92325895767131,
180,0,4,-4,1.15,,,,,3,0,3,0,0,9,9,55,,,,,,,,,,,,,,,,,,,,,,,812.2318605000619,None,812.2318605000619,None,811.7315203000326,None,f,0.4160094999242574,812.2318605000619,None,,,,,,,,,,,,,i,001,2021_Jul_05_1102,toilet,2021.1.3,99.92325895767131,
180,0,4,-4,1.0,,,,,3,0,3,0,0,10,10,52,,,,,,,,,,,,,,,,,,,,,,,813.6728364001028,None,813.6728364001028,None,813.1724978000857,None,j,0.5430536000058055,813.6728364001028,None,,,,,,,,,,,,,i,001,2021_Jul_05_1102,toilet,2021.1.3,99.92325895767131,
0,0,-4,4,0.97,,,,,3,0,3,0,0,11,11,2,,,,,,,,,,,,,,,,,,,,,,,815.223886199994,None,815.223886199994,None,814.7235455000773,None,f,0.7839788000565022,815.223886199994,None,,,,,,,,,,,,,i,001,2021_Jul_05_1102,toilet,2021.1.3,99.92325895767131,
0,180,4,-4,0.94,,,,,3,0,3,0,0,12,12,22,,,,,,,,,,,,,,,,,,,,,,,817.0251980000176,None,817.0251980000176,None,816.5247659999877,None,j,0.45463970000855625,817.0251980000176,None,,,,,,,,,,,,,i,001,2021_Jul_05_1102,toilet,2021.1.3,99.92325895767131,
180,180,4,-4,1.15,,,,,3,0,3,0,0,13,13,41,,,,,,,,,,,,,,,,,,,,,,,818.4960994001012,None,818.4960994001012,None,817.9957715000492,None,f,0.40761300013400614,818.4960994001012,None,,,,,,,,,,,,,i,001,2021_Jul_05_1102,toilet,2021.1.3,99.92325895767131,
0,0,4,-4,1.06,,,,,3,0,3,0,0,14,14,12,,,,,,,,,,,,,,,,,,,,,,,819.9070715000853,None,819.9070715000853,None,819.4067234001122,None,f,0.5327044001314789,819.9070715000853,None,,,,,,,,,,,,,i,001,2021_Jul_05_1102,toilet,2021.1.3,99.92325895767131,
180,0,-4,4,1.15,,,,,3,0,3,0,0,15,15,48,,,,,,,,,,,,,,,,,,,,,,,821.4681096000131,None,821.4681096000131,None,820.9677724000067,None,j,0.31568240001797676,821.4681096000131,None,,,,,,,,,,,,,i,001,2021_Jul_05_1102,toilet,2021.1.3,99.92325895767131,
0,0,4,-4,1.0,,,,,3,0,3,0,0,16,16,10,,,,,,,,,,,,,,,,,,,,,,,822.7991077001207,None,822.7991077001207,None,822.2986761000939,None,f,0.5047327000647783,822.7991077001207,None,,,,,,,,,,,,,i,001,2021_Jul_05_1102,toilet,2021.1.3,99.92325895767131,
0,0,4,-4,0.85,,,,,3,0,3,0,0,17,17,7,,,,,,,,,,,,,,,,,,,,,,,824.3101194000337,None,824.3101194000337,None,823.8097920001019,None,j,0.46571379993110895,824.3101194000337,None,,,,,,,,,,,,,i,001,2021_Jul_05_1102,toilet,2021.1.3,99.92325895767131,
0,180,-4,4,0.97,,,,,3,0,3,0,0,18,18,16,,,,,,,,,,,,,,,,,,,,,,,825.7910404000431,None,825.7910404000431,None,825.2907185000367,None,f,0.3766390001401305,825.7910404000431,None,,,,,,,,,,,,,i,001,2021_Jul_05_1102,toilet,2021.1.3,99.92325895767131,
0,0,-4,4,0.85,,,,,3,0,3,0,0,19,19,0,,,,,,,,,,,,,,,,,,,,,,,827.171979600098,None,827.171979600098,None,826.6716344000306,None,f,0.5158760000485927,827.171979600098,None,,,,,,,,,,,,,i,001,2021_Jul_05_1102,toilet,2021.1.3,99.92325895767131,
0,180,4,-4,1.06,,,,,3,0,3,0,0,20,20,26,,,,,,,,,,,,,,,,,,,,,,,828.6930051001254,None,828.6930051001254,None,828.192668300122,None,f,0.5147912998218089,828.6930051001254,None,,,,,,,,,,,,,i,001,2021_Jul_05_1102,toilet,2021.1.3,99.92325895767131,
0,180,4,-4,1.0,,,,,3,0,3,0,0,21,21,24,,,,,,,,,,,,,,,,,,,,,,,830.234052499989,None,830.234052499989,None,829.7337116000708,None,j,0.7338511999696493,830.234052499989,None,,,,,,,,,,,,,i,001,2021_Jul_05_1102,toilet,2021.1.3,99.92325895767131,
0,180,4,-4,1.15,,,,,3,0,3,0,0,22,22,27,,,,,,,,,,,,,,,,,,,,,,,831.9953283001669,None,831.9953283001669,None,831.4949872000143,None,f,0.39642270002514124,831.9953283001669,None,,,,,,,,,,,,,i,001,2021_Jul_05_1102,toilet,2021.1.3,99.92325895767131,
180,180,4,-4,0.97,,,,,3,0,3,0,0,23,23,37,,,,,,,,,,,,,,,,,,,,,,,833.396188300103,None,833.396188300103,None,832.8958533001132,None,j,0.4995144000276923,833.396188300103,None,,,,,,,,,,,,,i,001,2021_Jul_05_1102,toilet,2021.1.3,99.92325895767131,
0,180,4,-4,0.97,,,,,3,0,3,0,0,24,24,23,,,,,,,,,,,,,,,,,,,,,,,834.8972062000539,None,834.8972062000539,None,834.3968712000642,None,f,0.4066254999488592,834.8972062000539,None,,,,,,,,,,,,,i,001,2021_Jul_05_1102,toilet,2021.1.3,99.92325895767131,
0,180,-4,4,1.03,,,,,3,0,3,0,0,25,25,18,,,,,,,,,,,,,,,,,,,,,,,836.3181694000959,None,836.3181694000959,None,835.8178344001062,None,j,0.8095857000444084,836.3181694000959,None,,,,,,,,,,,,,i,001,2021_Jul_05_1102,toilet,2021.1.3,99.92325895767131,
180,0,4,-4,1.03,,,,,3,0,3,0,0,26,26,53,,,,,,,,,,,,,,,,,,,,,,,838.1394849000499,None,838.1394849000499,None,837.6390694000293,None,j,0.5403324000071734,838.1394849000499,None,,,,,,,,,,,,,i,001,2021_Jul_05_1102,toilet,2021.1.3,99.92325895767131,
0,0,4,-4,1.03,,,,,3,0,3,0,0,27,27,11,,,,,,,,,,,,,,,,,,,,,,,839.6904794999864,None,839.6904794999864,None,839.1901134999935,None,j,0.5251959001179785,839.6904794999864,None,,,,,,,,,,,,,i,001,2021_Jul_05_1102,toilet,2021.1.3,99.92325895767131,
180,180,4,-4,1.06,,,,,3,0,3,0,0,28,28,40,,,,,,,,,,,,,,,,,,,,,,,841.2214907000307,None,841.2214907000307,None,840.7211547000334,None,f,1.1223345000762492,841.2214907000307,None,,,,,,,,,,,,,i,001,2021_Jul_05_1102,toilet,2021.1.3,99.92325895767131,
0,0,-4,4,1.15,,,,,3,0,3,0,0,29,29,6,,,,,,,,,,,,,,,,,,,,,,,843.3529364999849,None,843.3529364999849,None,842.8525917001534,None,j,0.39891369990073144,843.3529364999849,None,,,,,,,,,,,,,i,001,2021_Jul_05_1102,toilet,2021.1.3,99.92325895767131,
180,180,4,-4,1.0,,,,,3,0,3,0,0,30,30,38,,,,,,,,,,,,,,,,,,,,,,,844.7638867001515,None,844.7638867001515,None,844.2635540000629,None,j,0.635952000040561,844.7638867001515,None,,,,,,,,,,,,,i,001,2021_Jul_05_1102,toilet,2021.1.3,99.92325895767131,
0,0,-4,4,1.06,,,,,3,0,3,0,0,31,31,5,,,,,,,,,,,,,,,,,,,,,,,846.415089600021,None,846.415089600021,None,845.9146653001662,None,j,0.5047871000133455,846.415089600021,None,,,,,,,,,,,,,i,001,2021_Jul_05_1102,toilet,2021.1.3,99.92325895767131,
0,0,4,-4,0.97,,,,,3,0,3,0,0,32,32,9,,,,,,,,,,,,,,,,,,,,,,,847.9360360000283,None,847.9360360000283,None,847.4356943001039,None,j,0.37564139999449253,847.9360360000283,None,,,,,,,,,,,,,i,001,2021_Jul_05_1102,toilet,2021.1.3,99.92325895767131,
0,0,4,-4,1.15,,,,,3,0,3,0,0,33,33,13,,,,,,,,,,,,,,,,,,,,,,,849.3169686000329,None,849.3169686000329,None,848.8166302000172,None,f,0.4506891001947224,849.3169686000329,None,,,,,,,,,,,,,i,001,2021_Jul_05_1102,toilet,2021.1.3,99.92325895767131,
180,0,4,-4,0.85,,,,,3,0,3,0,0,34,34,49,,,,,,,,,,,,,,,,,,,,,,,850.7679527001455,None,850.7679527001455,None,850.2676142000128,None,j,0.34385840012691915,850.7679527001455,None,,,,,,,,,,,,,i,001,2021_Jul_05_1102,toilet,2021.1.3,99.92325895767131,
180,180,-4,4,1.0,,,,,3,0,3,0,0,35,35,31,,,,,,,,,,,,,,,,,,,,,,,852.1288859001361,None,852.1288859001361,None,851.6285339000169,None,f,0.598840800113976,852.1288859001361,None,,,,,,,,,,,,,i,001,2021_Jul_05_1102,toilet,2021.1.3,99.92325895767131,
0,180,4,-4,0.85,,,,,3,0,3,0,0,36,36,21,,,,,,,,,,,,,,,,,,,,,,,853.740059300093,None,853.740059300093,None,853.2396279999521,None,j,0.6036624999251217,853.740059300093,None,,,,,,,,,,,,,i,001,2021_Jul_05_1102,toilet,2021.1.3,99.92325895767131,
0,180,-4,4,1.15,,,,,3,0,3,0,0,37,37,20,,,,,,,,,,,,,,,,,,,,,,,855.3510628000367,None,855.3510628000367,None,854.8507181000896,None,j,0.40069150016643107,855.3510628000367,None,,,,,,,,,,,,,i,001,2021_Jul_05_1102,toilet,2021.1.3,99.92325895767131,
180,0,4,-4,0.97,,,,,3,0,3,0,0,38,38,51,,,,,,,,,,,,,,,,,,,,,,,856.7520022001117,None,856.7520022001117,None,856.251662200084,None,j,0.3756677000783384,856.7520022001117,None,,,,,,,,,,,,,i,001,2021_Jul_05_1102,toilet,2021.1.3,99.92325895767131,
180,180,-4,4,0.97,,,,,3,0,3,0,0,39,39,30,,,,,,,,,,,,,,,,,,,,,,,858.1329372001346,None,858.1329372001346,None,857.6326061000582,None,j,0.4669082001782954,858.1329372001346,None,,,,,,,,,,,,,i,001,2021_Jul_05_1102,toilet,2021.1.3,99.92325895767131,
0,0,4,-4,0.94,,,,,3,0,3,0,0,40,40,8,,,,,,,,,,,,,,,,,,,,,,,859.6139432999771,None,859.6139432999771,None,859.1136022000574,None,j,0.44181480002589524,859.6139432999771,None,,,,,,,,,,,,,i,001,2021_Jul_05_1102,toilet,2021.1.3,99.92325895767131,
0,180,-4,4,0.94,,,,,3,0,3,0,0,41,41,15,,,,,,,,,,,,,,,,,,,,,,,861.065003799973,None,861.065003799973,None,860.5646836999804,None,f,0.5748006000649184,861.065003799973,None,,,,,,,,,,,,,i,001,2021_Jul_05_1102,toilet,2021.1.3,99.92325895767131,
180,0,4,-4,1.06,,,,,3,0,3,0,0,42,42,54,,,,,,,,,,,,,,,,,,,,,,,862.656008400023,None,862.656008400023,None,862.1556659000926,None,f,0.5836933001410216,862.656008400023,None,,,,,,,,,,,,,i,001,2021_Jul_05_1102,toilet,2021.1.3,99.92325895767131,
0,0,-4,4,0.94,,,,,3,0,3,0,0,43,43,1,,,,,,,,,,,,,,,,,,,,,,,864.2470796001144,None,864.2470796001144,None,863.7467455000151,None,f,0.6085695000365376,864.2470796001144,None,,,,,,,,,,,,,i,001,2021_Jul_05_1102,toilet,2021.1.3,99.92325895767131,
180,180,4,-4,1.03,,,,,3,0,3,0,0,44,44,39,,,,,,,,,,,,,,,,,,,,,,,865.8581696001347,None,865.8581696001347,None,865.3578300999943,None,f,0.5174356000497937,865.8581696001347,None,,,,,,,,,,,,,i,001,2021_Jul_05_1102,toilet,2021.1.3,99.92325895767131,
0,180,-4,4,0.85,,,,,3,0,3,0,0,45,45,14,,,,,,,,,,,,,,,,,,,,,,,867.3792934000958,None,867.3792934000958,None,866.8788634999655,None,f,0.5644482001662254,867.3792934000958,None,,,,,,,,,,,,,i,001,2021_Jul_05_1102,toilet,2021.1.3,99.92325895767131,
180,0,-4,4,0.94,,,,,3,0,3,0,0,46,46,43,,,,,,,,,,,,,,,,,,,,,,,868.9503005000297,None,868.9503005000297,None,868.4500041999854,None,f,0.5453638001345098,868.9503005000297,None,,,,,,,,,,,,,i,001,2021_Jul_05_1102,toilet,2021.1.3,99.92325895767131,
180,180,4,-4,0.85,,,,,3,0,3,0,0,47,47,35,,,,,,,,,,,,,,,,,,,,,,,870.5013154000044,None,870.5013154000044,None,870.0009765999857,None,j,0.38635289994999766,870.5013154000044,None,,,,,,,,,,,,,i,001,2021_Jul_05_1102,toilet,2021.1.3,99.92325895767131,
180,180,-4,4,1.15,,,,,3,0,3,0,0,48,48,34,,,,,,,,,,,,,,,,,,,,,,,871.8922530000564,None,871.8922530000564,None,871.3919320001733,None,j,0.4677512999624014,871.8922530000564,None,,,,,,,,,,,,,i,001,2021_Jul_05_1102,toilet,2021.1.3,99.92325895767131,
180,180,4,-4,0.94,,,,,3,0,3,0,0,49,49,36,,,,,,,,,,,,,,,,,,,,,,,873.3832635001745,None,873.3832635001745,None,872.8829241001513,None,j,0.4164658999070525,873.3832635001745,None,,,,,,,,,,,,,i,001,2021_Jul_05_1102,toilet,2021.1.3,99.92325895767131,
