ori_st,ori_pr,xpos_st,xpos_pr,size,trials_3.thisRepN,trials_3.thisTrialN,trials_3.thisN,trials_3.thisIndex,trials_2.thisRepN,trials_2.thisTrialN,trials_2.thisN,trials_2.thisIndex,trials.thisRepN,trials.thisTrialN,trials.thisN,trials.thisIndex,wel_pra.started,wel_pra.stopped,resp_wel.keys,resp_wel.rt,resp_wel.started,resp_wel.stopped,standard_pra.started,standard_pra.stopped,prove_pra.started,prove_pra.stopped,fixation.started,fixation.stopped,resp_pra.keys,resp_pra.rt,resp_pra.started,resp_pra.stopped,instr.started,instr.stopped,key_resp_2.keys,key_resp_2.rt,key_resp_2.started,key_resp_2.stopped,standard.started,standard.stopped,probe.started,probe.stopped,text.started,text.stopped,resp.keys,resp.rt,resp.started,resp.stopped,text_2.started,text_2.stopped,key_resp.keys,key_resp.rt,key_resp.started,key_resp.stopped,text_3.started,text_3.stopped,key_resp_3.keys,key_resp_3.rt,key_resp_3.started,key_resp_3.stopped,participant,session,date,expName,psychopyVersion,frameRate,
,,,,,,,,,,,,,,,,,15.894340500002727,None,space,84.81135890004225,15.894340500002727,None,,,,,,,,,,,,,,,,,,,,,,,,,,,,,,,,,,,,,,,e,001,2021_Jul_02_1043,toilet,2021.1.3,99.90189631187896,
180,180,-4,4,1.15,0,0,0,11,,,,,,,,,,,,,,,101.76337960001547,None,101.76337960001547,None,101.26294659997802,None,j,0.7180352000286803,101.76337960001547,None,,,,,,,,,,,,,,,,,,,,,,,,,,,,,e,001,2021_Jul_02_1043,toilet,2021.1.3,99.90189631187896,
0,0,-4,4,0.85,0,1,1,0,,,,,,,,,,,,,,,103.4945277000079,None,103.4945277000079,None,102.99412129994016,None,f,0.44299929996486753,103.4945277000079,None,,,,,,,,,,,,,,,,,,,,,,,,,,,,,e,001,2021_Jul_02_1043,toilet,2021.1.3,99.90189631187896,
0,180,-4,4,0.85,0,2,2,4,,,,,,,,,,,,,,,104.95545150001999,None,104.95545150001999,None,104.45510949997697,None,f,0.8058834000257775,104.95545150001999,None,,,,,,,,,,,,,,,,,,,,,,,,,,,,,e,001,2021_Jul_02_1043,toilet,2021.1.3,99.90189631187896,
180,180,-4,4,1.15,0,3,3,10,,,,,,,,,,,,,,,106.76667369995266,None,106.76667369995266,None,106.26633849996142,None,j,0.43467499990947545,106.76667369995266,None,,,,,,,,,,,,,,,,,,,,,,,,,,,,,e,001,2021_Jul_02_1043,toilet,2021.1.3,99.90189631187896,
0,180,4,-4,0.85,0,4,4,5,,,,,,,,,,,,,,,108.20768659992609,None,108.20768659992609,None,107.70730979996733,None,j,0.5296674999408424,108.20768659992609,None,,,,,,,,,,,,,,,,,,,,,,,,,,,,,e,001,2021_Jul_02_1043,toilet,2021.1.3,99.90189631187896,
0,0,4,-4,0.85,0,5,5,1,,,,,,,,,,,,,,,109.73874499998055,None,109.73874499998055,None,109.2383466999745,None,j,0.4068856999510899,109.73874499998055,None,,,,,,,,,,,,,,,,,,,,,,,,,,,,,e,001,2021_Jul_02_1043,toilet,2021.1.3,99.90189631187896,
0,0,4,-4,1.15,0,6,6,3,,,,,,,,,,,,,,,111.15973860002123,None,111.15973860002123,None,110.65930880000815,None,f,0.4895333000458777,111.15973860002123,None,,,,,,,,,,,,,,,,,,,,,,,,,,,,,e,001,2021_Jul_02_1043,toilet,2021.1.3,99.90189631187896,
180,180,-4,4,0.85,0,7,7,8,,,,,,,,,,,,,,,112.65065650001634,None,112.65065650001634,None,112.15031749999616,None,f,0.3746562000596896,112.65065650001634,None,,,,,,,,,,,,,,,,,,,,,,,,,,,,,e,001,2021_Jul_02_1043,toilet,2021.1.3,99.90189631187896,
180,180,-4,4,0.85,0,8,8,9,,,,,,,,,,,,,,,114.03159949998371,None,114.03159949998371,None,113.5312592999544,None,f,0.3858758000424132,114.03159949998371,None,,,,,,,,,,,,,,,,,,,,,,,,,,,,,e,001,2021_Jul_02_1043,toilet,2021.1.3,99.90189631187896,
180,0,-4,4,0.85,0,9,9,13,,,,,,,,,,,,,,,115.44255489995703,None,115.44255489995703,None,114.94221339991782,None,f,0.36679020000156015,115.44255489995703,None,,,,,,,,,,,,,,,,,,,,,,,,,,,,,e,001,2021_Jul_02_1043,toilet,2021.1.3,99.90189631187896,
180,0,-4,4,1.15,0,10,10,14,,,,,,,,,,,,,,,116.81358309998177,None,116.81358309998177,None,116.31313809996936,None,j,0.3719351999461651,116.81358309998177,None,,,,,,,,,,,,,,,,,,,,,,,,,,,,,e,001,2021_Jul_02_1043,toilet,2021.1.3,99.90189631187896,
0,180,-4,4,1.15,0,11,11,6,,,,,,,,,,,,,,,118.20450429990888,None,118.20450429990888,None,117.70408369996585,None,j,0.3568324000807479,118.20450429990888,None,,,,,,,,,,,,,,,,,,,,,,,,,,,,,e,001,2021_Jul_02_1043,toilet,2021.1.3,99.90189631187896,
0,0,-4,4,1.15,0,12,12,2,,,,,,,,,,,,,,,119.56534709990956,None,119.56534709990956,None,119.0650108999107,None,j,0.43596779997460544,119.56534709990956,None,,,,,,,,,,,,,,,,,,,,,,,,,,,,,e,001,2021_Jul_02_1043,toilet,2021.1.3,99.90189631187896,
180,0,-4,4,1.15,0,13,13,15,,,,,,,,,,,,,,,121.00631979992613,None,121.00631979992613,None,120.50598279992118,None,j,0.3550090999342501,121.00631979992613,None,,,,,,,,,,,,,,,,,,,,,,,,,,,,,e,001,2021_Jul_02_1043,toilet,2021.1.3,99.90189631187896,
0,180,4,-4,1.15,0,14,14,7,,,,,,,,,,,,,,,122.37725159991533,None,122.37725159991533,None,121.87690969998948,None,f,0.39212730003055185,122.37725159991533,None,,,,,,,,,,,,,,,,,,,,,,,,,,,,,e,001,2021_Jul_02_1043,toilet,2021.1.3,99.90189631187896,
180,0,-4,4,0.85,0,15,15,12,,,,,,,,,,,,,,,123.7782831999939,None,123.7782831999939,None,123.27786639996339,None,f,0.35114509996492416,123.7782831999939,None,,,,,,,,,,,,,,,,,,,,,,,,,,,,,e,001,2021_Jul_02_1043,toilet,2021.1.3,99.90189631187896,
0,0,-4,4,1.15,,,,,0,0,0,0,0,0,0,6,,,,,,,,,,,,,,,,,124.14848659990821,None,space,67.26106459996663,124.14848659990821,None,192.4347113999538,None,192.4347113999538,None,191.93445049994625,None,j,0.4305782999144867,192.4347113999538,None,,,,,,,,,,,,,e,001,2021_Jul_02_1043,toilet,2021.1.3,99.90189631187896,
180,180,-4,4,0.94,,,,,0,0,0,0,0,1,1,29,,,,,,,,,,,,,,,,,,,,,,,193.86568589997478,None,193.86568589997478,None,193.36534919997212,None,f,0.4555171999381855,193.86568589997478,None,,,,,,,,,,,,,e,001,2021_Jul_02_1043,toilet,2021.1.3,99.90189631187896,
0,180,-4,4,0.97,,,,,0,0,0,0,0,2,2,16,,,,,,,,,,,,,,,,,,,,,,,195.3266706999857,None,195.3266706999857,None,194.8263324999716,None,j,1.794706100015901,195.3266706999857,None,,,,,,,,,,,,,e,001,2021_Jul_02_1043,toilet,2021.1.3,99.90189631187896,
0,180,-4,4,0.94,,,,,0,0,0,0,0,3,3,15,,,,,,,,,,,,,,,,,,,,,,,198.13866579998285,None,198.13866579998285,None,197.63826429995243,None,f,0.5986558999866247,198.13866579998285,None,,,,,,,,,,,,,e,001,2021_Jul_02_1043,toilet,2021.1.3,99.90189631187896,
180,0,4,-4,1.03,,,,,0,0,0,0,0,4,4,53,,,,,,,,,,,,,,,,,,,,,,,199.7496713999426,None,199.7496713999426,None,199.2493334999308,None,f,1.4676701999269426,199.7496713999426,None,,,,,,,,,,,,,e,001,2021_Jul_02_1043,toilet,2021.1.3,99.90189631187896,
0,180,4,-4,1.15,,,,,0,0,0,0,0,5,5,27,,,,,,,,,,,,,,,,,,,,,,,202.22134409996215,None,202.22134409996215,None,201.7209986000089,None,f,1.4440697999671102,202.22134409996215,None,,,,,,,,,,,,,e,001,2021_Jul_02_1043,toilet,2021.1.3,99.90189631187896,
180,180,-4,4,1.03,,,,,0,0,0,0,0,6,6,32,,,,,,,,,,,,,,,,,,,,,,,204.69302090001293,None,204.69302090001293,None,204.1926778999623,None,j,1.1963757000630721,204.69302090001293,None,,,,,,,,,,,,,e,001,2021_Jul_02_1043,toilet,2021.1.3,99.90189631187896,
180,180,4,-4,1.15,,,,,0,0,0,0,0,7,7,41,,,,,,,,,,,,,,,,,,,,,,,206.9045551000163,None,206.9045551000163,None,206.4042432999704,None,f,0.45661979995202273,206.9045551000163,None,,,,,,,,,,,,,e,001,2021_Jul_02_1043,toilet,2021.1.3,99.90189631187896,
180,180,4,-4,1.06,,,,,0,0,0,0,0,8,8,40,,,,,,,,,,,,,,,,,,,,,,,208.36550469999202,None,208.36550469999202,None,207.86516649997793,None,f,0.4997166000539437,208.36550469999202,None,,,,,,,,,,,,,e,001,2021_Jul_02_1043,toilet,2021.1.3,99.90189631187896,
0,180,4,-4,0.97,,,,,0,0,0,0,0,9,9,23,,,,,,,,,,,,,,,,,,,,,,,209.86652249994222,None,209.86652249994222,None,209.3662037999602,None,j,0.8227829999523237,209.86652249994222,None,,,,,,,,,,,,,e,001,2021_Jul_02_1043,toilet,2021.1.3,99.90189631187896,
180,0,-4,4,1.06,,,,,0,0,0,0,0,10,10,47,,,,,,,,,,,,,,,,,,,,,,,211.70776789996307,None,211.70776789996307,None,211.20745230000466,None,j,0.837519499938935,211.70776789996307,None,,,,,,,,,,,,,e,001,2021_Jul_02_1043,toilet,2021.1.3,99.90189631187896,
0,0,4,-4,1.15,,,,,0,0,0,0,0,11,11,13,,,,,,,,,,,,,,,,,,,,,,,213.55902369995601,None,213.55902369995601,None,213.0587680999888,None,f,0.4902926000067964,213.55902369995601,None,,,,,,,,,,,,,e,001,2021_Jul_02_1043,toilet,2021.1.3,99.90189631187896,
0,180,4,-4,0.85,,,,,0,0,0,0,0,12,12,21,,,,,,,,,,,,,,,,,,,,,,,215.06005690002348,None,215.06005690002348,None,214.55969959998038,None,j,0.47722510003950447,215.06005690002348,None,,,,,,,,,,,,,e,001,2021_Jul_02_1043,toilet,2021.1.3,99.90189631187896,
0,180,4,-4,1.0,,,,,0,0,0,0,0,13,13,24,,,,,,,,,,,,,,,,,,,,,,,216.54103969992138,None,216.54103969992138,None,216.0406992000062,None,j,2.5801891000010073,216.54103969992138,None,,,,,,,,,,,,,e,001,2021_Jul_02_1043,toilet,2021.1.3,99.90189631187896,
180,180,-4,4,1.06,,,,,0,0,0,0,0,14,14,33,,,,,,,,,,,,,,,,,,,,,,,220.12355279992335,None,220.12355279992335,None,219.62313289998565,None,j,0.9338252000743523,220.12355279992335,None,,,,,,,,,,,,,e,001,2021_Jul_02_1043,toilet,2021.1.3,99.90189631187896,
180,180,-4,4,0.97,,,,,0,0,0,0,0,15,15,30,,,,,,,,,,,,,,,,,,,,,,,222.07479089999106,None,222.07479089999106,None,221.57454850000795,None,f,0.502568700001575,222.07479089999106,None,,,,,,,,,,,,,e,001,2021_Jul_02_1043,toilet,2021.1.3,99.90189631187896,
0,180,4,-4,1.06,,,,,0,0,0,0,0,16,16,26,,,,,,,,,,,,,,,,,,,,,,,223.58581369998865,None,223.58581369998865,None,223.08547269995324,None,f,0.7834087000228465,223.58581369998865,None,,,,,,,,,,,,,e,001,2021_Jul_02_1043,toilet,2021.1.3,99.90189631187896,
180,180,4,-4,1.03,,,,,0,0,0,0,0,17,17,39,,,,,,,,,,,,,,,,,,,,,,,225.37702979997266,None,225.37702979997266,None,224.8766894999426,None,f,0.5763598999474198,225.37702979997266,None,,,,,,,,,,,,,e,001,2021_Jul_02_1043,toilet,2021.1.3,99.90189631187896,
0,180,-4,4,1.0,,,,,0,0,0,0,0,18,18,17,,,,,,,,,,,,,,,,,,,,,,,226.96819419995882,None,226.96819419995882,None,226.46776929998305,None,j,2.13725270004943,226.96819419995882,None,,,,,,,,,,,,,e,001,2021_Jul_02_1043,toilet,2021.1.3,99.90189631187896,
180,0,4,-4,1.0,,,,,0,0,0,0,0,19,19,52,,,,,,,,,,,,,,,,,,,,,,,230.120245099999,None,230.120245099999,None,229.6198996999301,None,j,2.248948600026779,230.120245099999,None,,,,,,,,,,,,,e,001,2021_Jul_02_1043,toilet,2021.1.3,99.90189631187896,
180,180,4,-4,0.97,,,,,0,0,0,0,0,20,20,37,,,,,,,,,,,,,,,,,,,,,,,233.37246280000545,None,233.37246280000545,None,232.87210939999204,None,j,1.4609038999769837,233.37246280000545,None,,,,,,,,,,,,,e,001,2021_Jul_02_1043,toilet,2021.1.3,99.90189631187896,
0,0,4,-4,1.03,,,,,0,0,0,0,0,21,21,11,,,,,,,,,,,,,,,,,,,,,,,235.84420619998127,None,235.84420619998127,None,235.34377649996895,None,f,1.7410995999816805,235.84420619998127,None,,,,,,,,,,,,,e,001,2021_Jul_02_1043,toilet,2021.1.3,99.90189631187896,
180,0,4,-4,0.94,,,,,0,0,0,0,0,22,22,50,,,,,,,,,,,,,,,,,,,,,,,238.58598169998731,None,238.58598169998731,None,238.08563380001578,None,j,0.487446500104852,238.58598169998731,None,,,,,,,,,,,,,e,001,2021_Jul_02_1043,toilet,2021.1.3,99.90189631187896,
180,0,4,-4,0.85,,,,,0,0,0,0,0,23,23,49,,,,,,,,,,,,,,,,,,,,,,,240.09700419998262,None,240.09700419998262,None,239.5966608999297,None,j,0.46436890005134046,240.09700419998262,None,,,,,,,,,,,,,e,001,2021_Jul_02_1043,toilet,2021.1.3,99.90189631187896,
180,0,-4,4,0.94,,,,,0,0,0,0,0,24,24,43,,,,,,,,,,,,,,,,,,,,,,,241.5880227999296,None,241.5880227999296,None,241.08767269994132,None,f,0.5092693000333384,241.5880227999296,None,,,,,,,,,,,,,e,001,2021_Jul_02_1043,toilet,2021.1.3,99.90189631187896,
0,0,4,-4,0.97,,,,,0,0,0,0,0,25,25,9,,,,,,,,,,,,,,,,,,,,,,,243.1091283999849,None,243.1091283999849,None,242.60870739992242,None,j,1.1161001999862492,243.1091283999849,None,,,,,,,,,,,,,e,001,2021_Jul_02_1043,toilet,2021.1.3,99.90189631187896,
180,0,4,-4,1.15,,,,,0,0,0,0,0,26,26,55,,,,,,,,,,,,,,,,,,,,,,,245.23048069991637,None,245.23048069991637,None,244.73013979999814,None,f,0.4666972999693826,245.23048069991637,None,,,,,,,,,,,,,e,001,2021_Jul_02_1043,toilet,2021.1.3,99.90189631187896,
180,180,4,-4,0.85,,,,,0,0,0,0,0,27,27,35,,,,,,,,,,,,,,,,,,,,,,,246.70147759991232,None,246.70147759991232,None,246.2011366999941,None,j,0.5798599000554532,246.70147759991232,None,,,,,,,,,,,,,e,001,2021_Jul_02_1043,toilet,2021.1.3,99.90189631187896,
180,0,4,-4,0.97,,,,,0,0,0,0,0,28,28,51,,,,,,,,,,,,,,,,,,,,,,,248.29255559993908,None,248.29255559993908,None,247.79221639991738,None,j,0.8606969999382272,248.29255559993908,None,,,,,,,,,,,,,e,001,2021_Jul_02_1043,toilet,2021.1.3,99.90189631187896,
0,180,-4,4,1.06,,,,,0,0,0,0,0,29,29,19,,,,,,,,,,,,,,,,,,,,,,,250.16391439992003,None,250.16391439992003,None,249.66357649990823,None,j,0.4293401000322774,250.16391439992003,None,,,,,,,,,,,,,e,001,2021_Jul_02_1043,toilet,2021.1.3,99.90189631187896,
0,180,-4,4,0.85,,,,,0,0,0,0,0,30,30,14,,,,,,,,,,,,,,,,,,,,,,,251.60479999997187,None,251.60479999997187,None,251.1044980000006,None,f,0.4445141999749467,251.60479999997187,None,,,,,,,,,,,,,e,001,2021_Jul_02_1043,toilet,2021.1.3,99.90189631187896,
0,0,-4,4,0.97,,,,,0,0,0,0,0,31,31,2,,,,,,,,,,,,,,,,,,,,,,,253.05577540001832,None,253.05577540001832,None,252.55544379993808,None,f,1.2973622999852523,253.05577540001832,None,,,,,,,,,,,,,e,001,2021_Jul_02_1043,toilet,2021.1.3,99.90189631187896,
180,180,-4,4,0.85,,,,,0,0,0,0,0,32,32,28,,,,,,,,,,,,,,,,,,,,,,,255.36737489991356,None,255.36737489991356,None,254.8670086999191,None,f,0.4258014999795705,255.36737489991356,None,,,,,,,,,,,,,e,001,2021_Jul_02_1043,toilet,2021.1.3,99.90189631187896,
0,0,4,-4,1.0,,,,,0,0,0,0,0,33,33,10,,,,,,,,,,,,,,,,,,,,,,,256.7983925999142,None,256.7983925999142,None,256.29797840001993,None,j,0.3551050000824034,256.7983925999142,None,,,,,,,,,,,,,e,001,2021_Jul_02_1043,toilet,2021.1.3,99.90189631187896,
0,0,-4,4,0.94,,,,,0,0,0,0,0,34,34,1,,,,,,,,,,,,,,,,,,,,,,,258.1692887999816,None,258.1692887999816,None,257.66891140001826,None,f,1.703951200004667,258.1692887999816,None,,,,,,,,,,,,,e,001,2021_Jul_02_1043,toilet,2021.1.3,99.90189631187896,
180,180,4,-4,0.94,,,,,0,0,0,0,0,35,35,36,,,,,,,,,,,,,,,,,,,,,,,260.8810833999887,None,260.8810833999887,None,260.3807434999617,None,j,0.4802517000352964,260.8810833999887,None,,,,,,,,,,,,,e,001,2021_Jul_02_1043,toilet,2021.1.3,99.90189631187896,
0,0,4,-4,0.85,,,,,0,0,0,0,0,36,36,7,,,,,,,,,,,,,,,,,,,,,,,262.3720876999432,None,262.3720876999432,None,261.87175359996036,None,j,0.44503940001595765,262.3720876999432,None,,,,,,,,,,,,,e,001,2021_Jul_02_1043,toilet,2021.1.3,99.90189631187896,
180,0,-4,4,0.97,,,,,0,0,0,0,0,37,37,44,,,,,,,,,,,,,,,,,,,,,,,263.8231535999803,None,263.8231535999803,None,263.3227646999294,None,f,1.2180191000225022,263.8231535999803,None,,,,,,,,,,,,,e,001,2021_Jul_02_1043,toilet,2021.1.3,99.90189631187896,
180,0,-4,4,1.03,,,,,0,0,0,0,0,38,38,46,,,,,,,,,,,,,,,,,,,,,,,266.04462109995075,None,266.04462109995075,None,265.5443203999894,None,j,0.5005469000898302,266.04462109995075,None,,,,,,,,,,,,,e,001,2021_Jul_02_1043,toilet,2021.1.3,99.90189631187896,
180,0,-4,4,1.15,,,,,0,0,0,0,0,39,39,48,,,,,,,,,,,,,,,,,,,,,,,267.54559829994105,None,267.54559829994105,None,267.0452586999163,None,j,0.3916856999276206,267.54559829994105,None,,,,,,,,,,,,,e,001,2021_Jul_02_1043,toilet,2021.1.3,99.90189631187896,
0,180,-4,4,1.03,,,,,0,0,0,0,0,40,40,18,,,,,,,,,,,,,,,,,,,,,,,268.9465445999522,None,268.9465445999522,None,268.4462094999617,None,j,1.1026960000162944,268.9465445999522,None,,,,,,,,,,,,,e,001,2021_Jul_02_1043,toilet,2021.1.3,99.90189631187896,
0,0,-4,4,1.0,,,,,0,0,0,0,0,41,41,3,,,,,,,,,,,,,,,,,,,,,,,271.0579831999494,None,271.0579831999494,None,270.55763419996947,None,j,0.4953644999768585,271.0579831999494,None,,,,,,,,,,,,,e,001,2021_Jul_02_1043,toilet,2021.1.3,99.90189631187896,
180,180,-4,4,1.0,,,,,0,0,0,0,0,42,42,31,,,,,,,,,,,,,,,,,,,,,,,272.5790467999177,None,272.5790467999177,None,272.0787401999114,None,j,1.9021861999062821,272.5790467999177,None,,,,,,,,,,,,,e,001,2021_Jul_02_1043,toilet,2021.1.3,99.90189631187896,
0,0,-4,4,1.03,,,,,0,0,0,0,0,43,43,4,,,,,,,,,,,,,,,,,,,,,,,275.4809710999252,None,275.4809710999252,None,274.98066419991665,None,j,1.288415199960582,275.4809710999252,None,,,,,,,,,,,,,e,001,2021_Jul_02_1043,toilet,2021.1.3,99.90189631187896,
0,180,4,-4,0.94,,,,,0,0,0,0,0,44,44,22,,,,,,,,,,,,,,,,,,,,,,,277.78253440000117,None,277.78253440000117,None,277.28219890000764,None,j,0.4747747000074014,277.78253440000117,None,,,,,,,,,,,,,e,001,2021_Jul_02_1043,toilet,2021.1.3,99.90189631187896,
0,0,-4,4,1.06,,,,,0,0,0,0,0,45,45,5,,,,,,,,,,,,,,,,,,,,,,,279.27363099996,None,279.27363099996,None,278.7732103000162,None,j,0.47176119999494404,279.27363099996,None,,,,,,,,,,,,,e,001,2021_Jul_02_1043,toilet,2021.1.3,99.90189631187896,
180,0,4,-4,1.06,,,,,0,0,0,0,0,46,46,54,,,,,,,,,,,,,,,,,,,,,,,280.7645573000191,None,280.7645573000191,None,280.2642125999555,None,f,0.5166739999549463,280.7645573000191,None,,,,,,,,,,,,,e,001,2021_Jul_02_1043,toilet,2021.1.3,99.90189631187896,
0,0,-4,4,0.85,,,,,0,0,0,0,0,47,47,0,,,,,,,,,,,,,,,,,,,,,,,282.28558719996363,None,282.28558719996363,None,281.78524539992213,None,f,0.5317096000071615,282.28558719996363,None,,,,,,,,,,,,,e,001,2021_Jul_02_1043,toilet,2021.1.3,99.90189631187896,
180,180,-4,4,1.15,,,,,0,0,0,0,0,48,48,34,,,,,,,,,,,,,,,,,,,,,,,283.8266285000136,None,283.8266285000136,None,283.32628869998734,None,j,0.3986402000300586,283.8266285000136,None,,,,,,,,,,,,,e,001,2021_Jul_02_1043,toilet,2021.1.3,99.90189631187896,
0,0,4,-4,0.94,,,,,0,0,0,0,0,49,49,8,,,,,,,,,,,,,,,,,,,,,,,285.2376010000007,None,285.2376010000007,None,284.7372406999348,None,j,0.41167449997738004,285.2376010000007,None,,,,,,,,,,,,,e,001,2021_Jul_02_1043,toilet,2021.1.3,99.90189631187896,
0,180,-4,4,1.15,,,,,0,0,0,0,0,50,50,20,,,,,,,,,,,,,,,,,,,,,,,286.65854809992015,None,286.65854809992015,None,286.15829539997503,None,j,0.4466474000364542,286.65854809992015,None,,,,,,,,,,,,,e,001,2021_Jul_02_1043,toilet,2021.1.3,99.90189631187896,
0,0,4,-4,1.06,,,,,0,0,0,0,0,51,51,12,,,,,,,,,,,,,,,,,,,,,,,288.1195540999761,None,288.1195540999761,None,287.6192706999136,None,f,0.8416460000444204,288.1195540999761,None,,,,,,,,,,,,,e,001,2021_Jul_02_1043,toilet,2021.1.3,99.90189631187896,
180,0,-4,4,0.85,,,,,0,0,0,0,0,52,52,42,,,,,,,,,,,,,,,,,,,,,,,289.97079199994914,None,289.97079199994914,None,289.47045049990993,None,f,1.0865301999729127,289.97079199994914,None,,,,,,,,,,,,,e,001,2021_Jul_02_1043,toilet,2021.1.3,99.90189631187896,
180,0,-4,4,1.0,,,,,0,0,0,0,0,53,53,45,,,,,,,,,,,,,,,,,,,,,,,292.08221949997824,None,292.08221949997824,None,291.58187250001356,None,j,1.3109624000499025,292.08221949997824,None,,,,,,,,,,,,,e,001,2021_Jul_02_1043,toilet,2021.1.3,99.90189631187896,
180,180,4,-4,1.0,,,,,0,0,0,0,0,54,54,38,,,,,,,,,,,,,,,,,,,,,,,294.403879999998,None,294.403879999998,None,293.90345169999637,None,j,0.7654112000018358,294.403879999998,None,,,,,,,,,,,,,e,001,2021_Jul_02_1043,toilet,2021.1.3,99.90189631187896,
0,180,4,-4,1.03,,,,,0,0,0,0,0,55,55,25,,,,,,,,,,,,,,,,,,,,,,,296.1849998999387,None,296.1849998999387,None,295.68466109992005,None,j,2.4242561999708414,296.1849998999387,None,,,,,,,,,,,,,e,001,2021_Jul_02_1043,toilet,2021.1.3,99.90189631187896,
180,0,4,-4,0.94,,,,,0,0,0,0,1,0,56,50,,,,,,,,,,,,,,,,,,,,,,,299.627330099931,None,299.627330099931,None,299.1269906000234,None,j,0.5658106999471784,299.627330099931,None,,,,,,,,,,,,,e,001,2021_Jul_02_1043,toilet,2021.1.3,99.90189631187896,
0,180,-4,4,1.03,,,,,0,0,0,0,1,1,57,18,,,,,,,,,,,,,,,,,,,,,,,301.1984872999601,None,301.1984872999601,None,300.69805589993484,None,j,1.906669499934651,301.1984872999601,None,,,,,,,,,,,,,e,001,2021_Jul_02_1043,toilet,2021.1.3,99.90189631187896,
0,180,4,-4,0.94,,,,,0,0,0,0,1,2,58,22,,,,,,,,,,,,,,,,,,,,,,,304.11036709998734,None,304.11036709998734,None,303.61004129995126,None,j,0.49877390009351075,304.11036709998734,None,,,,,,,,,,,,,e,001,2021_Jul_02_1043,toilet,2021.1.3,99.90189631187896,
180,0,-4,4,0.85,,,,,0,0,0,0,1,3,59,42,,,,,,,,,,,,,,,,,,,,,,,305.6113855999429,None,305.6113855999429,None,305.11104390001856,None,f,0.46982100000604987,305.6113855999429,None,,,,,,,,,,,,,e,001,2021_Jul_02_1043,toilet,2021.1.3,99.90189631187896,
0,0,-4,4,1.06,,,,,0,0,0,0,1,4,60,5,,,,,,,,,,,,,,,,,,,,,,,307.09238799999,None,307.09238799999,None,306.59204719995614,None,j,0.4608127000974491,307.09238799999,None,,,,,,,,,,,,,e,001,2021_Jul_02_1043,toilet,2021.1.3,99.90189631187896,
180,180,-4,4,1.15,,,,,0,0,0,0,1,5,61,34,,,,,,,,,,,,,,,,,,,,,,,308.56346879992634,None,308.56346879992634,None,308.0630471999757,None,j,0.44581329997163266,308.56346879992634,None,,,,,,,,,,,,,e,001,2021_Jul_02_1043,toilet,2021.1.3,99.90189631187896,
0,180,4,-4,1.15,,,,,0,0,0,0,1,6,62,27,,,,,,,,,,,,,,,,,,,,,,,310.02441479999106,None,310.02441479999106,None,309.52403480000794,None,f,0.3928205999545753,310.02441479999106,None,,,,,,,,,,,,,e,001,2021_Jul_02_1043,toilet,2021.1.3,99.90189631187896,
0,0,-4,4,0.85,,,,,0,0,0,0,1,7,63,0,,,,,,,,,,,,,,,,,,,,,,,311.42532369995024,None,311.42532369995024,None,310.92498399992473,None,f,0.4478213000111282,311.42532369995024,None,,,,,,,,,,,,,e,001,2021_Jul_02_1043,toilet,2021.1.3,99.90189631187896,
0,0,-4,4,1.03,,,,,0,0,0,0,1,8,64,4,,,,,,,,,,,,,,,,,,,,,,,312.87630979996175,None,312.87630979996175,None,312.37596620002296,None,j,0.5327948000049219,312.87630979996175,None,,,,,,,,,,,,,e,001,2021_Jul_02_1043,toilet,2021.1.3,99.90189631187896,
0,0,4,-4,1.03,,,,,0,0,0,0,1,9,65,11,,,,,,,,,,,,,,,,,,,,,,,314.4173496000003,None,314.4173496000003,None,313.9170095999725,None,j,1.6157521000131965,314.4173496000003,None,,,,,,,,,,,,,e,001,2021_Jul_02_1043,toilet,2021.1.3,99.90189631187896,
0,0,-4,4,0.94,,,,,0,0,0,0,1,10,66,1,,,,,,,,,,,,,,,,,,,,,,,317.0392083999468,None,317.0392083999468,None,316.538884999929,None,f,0.5620616000378504,317.0392083999468,None,,,,,,,,,,,,,e,001,2021_Jul_02_1043,toilet,2021.1.3,99.90189631187896,
180,180,4,-4,1.15,,,,,0,0,0,0,1,11,67,41,,,,,,,,,,,,,,,,,,,,,,,318.6101927999407,None,318.6101927999407,None,318.1098471999867,None,f,0.4789095999440178,318.6101927999407,None,,,,,,,,,,,,,e,001,2021_Jul_02_1043,toilet,2021.1.3,99.90189631187896,
0,0,-4,4,0.97,,,,,0,0,0,0,1,12,68,2,,,,,,,,,,,,,,,,,,,,,,,320.09121589991264,None,320.09121589991264,None,319.59085569996387,None,j,0.43789950001519173,320.09121589991264,None,,,,,,,,,,,,,e,001,2021_Jul_02_1043,toilet,2021.1.3,99.90189631187896,
0,180,4,-4,0.85,,,,,0,0,0,0,1,13,69,21,,,,,,,,,,,,,,,,,,,,,,,321.54219239996746,None,321.54219239996746,None,321.04184369998984,None,j,0.37900059996172786,321.54219239996746,None,,,,,,,,,,,,,e,001,2021_Jul_02_1043,toilet,2021.1.3,99.90189631187896,
180,0,-4,4,0.97,,,,,0,0,0,0,1,14,70,44,,,,,,,,,,,,,,,,,,,,,,,322.93320029997267,None,322.93320029997267,None,322.4328070000047,None,j,1.0360512000042945,322.93320029997267,None,,,,,,,,,,,,,e,001,2021_Jul_02_1043,toilet,2021.1.3,99.90189631187896,
0,0,-4,4,1.15,,,,,0,0,0,0,1,15,71,6,,,,,,,,,,,,,,,,,,,,,,,324.9845140000107,None,324.9845140000107,None,324.48426930001006,None,j,0.39256880001630634,324.9845140000107,None,,,,,,,,,,,,,e,001,2021_Jul_02_1043,toilet,2021.1.3,99.90189631187896,
180,180,4,-4,0.94,,,,,0,0,0,0,1,16,72,36,,,,,,,,,,,,,,,,,,,,,,,326.38545860000886,None,326.38545860000886,None,325.88511449994985,None,j,0.479653500020504,326.38545860000886,None,,,,,,,,,,,,,e,001,2021_Jul_02_1043,toilet,2021.1.3,99.90189631187896,
180,180,-4,4,1.06,,,,,0,0,0,0,1,17,73,33,,,,,,,,,,,,,,,,,,,,,,,327.86646079993807,None,327.86646079993807,None,327.3661245999392,None,j,0.4066625999985263,327.86646079993807,None,,,,,,,,,,,,,e,001,2021_Jul_02_1043,toilet,2021.1.3,99.90189631187896,
180,180,4,-4,0.85,,,,,0,0,0,0,1,18,74,35,,,,,,,,,,,,,,,,,,,,,,,329.2774149000179,None,329.2774149000179,None,328.77707989991177,None,j,0.3558408999815583,329.2774149000179,None,,,,,,,,,,,,,e,001,2021_Jul_02_1043,toilet,2021.1.3,99.90189631187896,
180,180,-4,4,0.97,,,,,0,0,0,0,1,19,75,30,,,,,,,,,,,,,,,,,,,,,,,330.6584418999264,None,330.6584418999264,None,330.15801559994,None,f,0.46284410008229315,330.6584418999264,None,,,,,,,,,,,,,e,001,2021_Jul_02_1043,toilet,2021.1.3,99.90189631187896,
0,0,4,-4,0.85,,,,,0,0,0,0,1,20,76,7,,,,,,,,,,,,,,,,,,,,,,,332.14939539995976,None,332.14939539995976,None,331.64911260001827,None,j,0.3318140000337735,332.14939539995976,None,,,,,,,,,,,,,e,001,2021_Jul_02_1043,toilet,2021.1.3,99.90189631187896,
0,180,4,-4,0.97,,,,,0,0,0,0,1,21,77,23,,,,,,,,,,,,,,,,,,,,,,,333.4902697999496,None,333.4902697999496,None,332.9899300999241,None,j,0.4787885999539867,333.4902697999496,None,,,,,,,,,,,,,e,001,2021_Jul_02_1043,toilet,2021.1.3,99.90189631187896,
180,180,4,-4,0.97,,,,,0,0,0,0,1,22,78,37,,,,,,,,,,,,,,,,,,,,,,,334.97124659991823,None,334.97124659991823,None,334.47093249997124,None,j,0.5818743000272661,334.97124659991823,None,,,,,,,,,,,,,e,001,2021_Jul_02_1043,toilet,2021.1.3,99.90189631187896,
0,0,4,-4,1.06,,,,,0,0,0,0,1,23,79,12,,,,,,,,,,,,,,,,,,,,,,,336.56235569994897,None,336.56235569994897,None,336.0620128000155,None,f,0.5908345999196172,336.56235569994897,None,,,,,,,,,,,,,e,001,2021_Jul_02_1043,toilet,2021.1.3,99.90189631187896,
180,0,4,-4,0.97,,,,,0,0,0,0,1,24,80,51,,,,,,,,,,,,,,,,,,,,,,,338.16352259996347,None,338.16352259996347,None,337.6631426999811,None,j,0.3817224999656901,338.16352259996347,None,,,,,,,,,,,,,e,001,2021_Jul_02_1043,toilet,2021.1.3,99.90189631187896,
0,0,4,-4,1.15,,,,,0,0,0,0,1,25,81,13,,,,,,,,,,,,,,,,,,,,,,,339.5543950999854,None,339.5543950999854,None,339.05412049998995,None,f,0.43070380005519837,339.5543950999854,None,,,,,,,,,,,,,e,001,2021_Jul_02_1043,toilet,2021.1.3,99.90189631187896,
0,180,-4,4,0.94,,,,,0,0,0,0,1,26,82,15,,,,,,,,,,,,,,,,,,,,,,,340.9853529999964,None,340.9853529999964,None,340.48500589991454,None,f,3.4637471000896767,340.9853529999964,None,,,,,,,,,,,,,e,001,2021_Jul_02_1043,toilet,2021.1.3,99.90189631187896,
0,180,-4,4,0.85,,,,,0,0,0,0,1,27,83,14,,,,,,,,,,,,,,,,,,,,,,,345.4484569999622,None,345.4484569999622,None,344.94803079997655,None,f,0.8247902999864891,345.4484569999622,None,,,,,,,,,,,,,e,001,2021_Jul_02_1043,toilet,2021.1.3,99.90189631187896,
180,0,-4,4,1.0,,,,,0,0,0,0,1,28,84,45,,,,,,,,,,,,,,,,,,,,,,,347.29961989994626,None,347.29961989994626,None,346.7993276999332,None,j,1.4695568999741226,347.29961989994626,None,,,,,,,,,,,,,e,001,2021_Jul_02_1043,toilet,2021.1.3,99.90189631187896,
0,180,4,-4,1.0,,,,,0,0,0,0,1,29,85,24,,,,,,,,,,,,,,,,,,,,,,,349.7713026999263,None,349.7713026999263,None,349.2709655999206,None,j,0.4378924999618903,349.7713026999263,None,,,,,,,,,,,,,e,001,2021_Jul_02_1043,toilet,2021.1.3,99.90189631187896,
180,0,-4,4,1.15,,,,,0,0,0,0,1,30,86,48,,,,,,,,,,,,,,,,,,,,,,,351.2222854999127,None,351.2222854999127,None,350.7219415999716,None,j,0.4108582000480965,351.2222854999127,None,,,,,,,,,,,,,e,001,2021_Jul_02_1043,toilet,2021.1.3,99.90189631187896,
180,180,4,-4,1.0,,,,,0,0,0,0,1,31,87,38,,,,,,,,,,,,,,,,,,,,,,,352.6432470999425,None,352.6432470999425,None,352.1429091999307,None,j,1.0220098999561742,352.6432470999425,None,,,,,,,,,,,,,e,001,2021_Jul_02_1043,toilet,2021.1.3,99.90189631187896,
180,180,-4,4,1.0,,,,,0,0,0,0,1,32,88,31,,,,,,,,,,,,,,,,,,,,,,,354.6846268000081,None,354.6846268000081,None,354.18429339991417,None,j,0.5325462999753654,354.6846268000081,None,,,,,,,,,,,,,e,001,2021_Jul_02_1043,toilet,2021.1.3,99.90189631187896,
0,180,-4,4,1.0,,,,,0,0,0,0,1,33,89,17,,,,,,,,,,,,,,,,,,,,,,,356.2256719999714,None,356.2256719999714,None,355.7253366999794,None,j,0.8155535999685526,356.2256719999714,None,,,,,,,,,,,,,e,001,2021_Jul_02_1043,toilet,2021.1.3,99.90189631187896,
0,180,4,-4,1.03,,,,,0,0,0,0,1,34,90,25,,,,,,,,,,,,,,,,,,,,,,,358.0669241999276,None,358.0669241999276,None,357.5665818999987,None,f,0.9743215999333188,358.0669241999276,None,,,,,,,,,,,,,e,001,2021_Jul_02_1043,toilet,2021.1.3,99.90189631187896,
180,0,-4,4,0.94,,,,,0,0,0,0,1,35,91,43,,,,,,,,,,,,,,,,,,,,,,,360.058360899915,None,360.058360899915,None,359.5579288000008,None,f,1.0628690000157803,360.058360899915,None,,,,,,,,,,,,,e,001,2021_Jul_02_1043,toilet,2021.1.3,99.90189631187896,
180,180,-4,4,0.94,,,,,0,0,0,0,1,36,92,29,,,,,,,,,,,,,,,,,,,,,,,362.1396731999703,None,362.1396731999703,None,361.63941740000155,None,f,0.9493554999353364,362.1396731999703,None,,,,,,,,,,,,,e,001,2021_Jul_02_1043,toilet,2021.1.3,99.90189631187896,
0,180,-4,4,1.15,,,,,0,0,0,0,1,37,93,20,,,,,,,,,,,,,,,,,,,,,,,364.0910002000164,None,364.0910002000164,None,363.590661299997,None,j,0.4060589000582695,364.0910002000164,None,,,,,,,,,,,,,e,001,2021_Jul_02_1043,toilet,2021.1.3,99.90189631187896,
0,180,4,-4,1.06,,,,,0,0,0,0,1,38,94,26,,,,,,,,,,,,,,,,,,,,,,,365.5119618999306,None,365.5119618999306,None,365.011619900004,None,f,1.4651172999292612,365.5119618999306,None,,,,,,,,,,,,,e,001,2021_Jul_02_1043,toilet,2021.1.3,99.90189631187896,
180,0,-4,4,1.06,,,,,0,0,0,0,1,39,95,47,,,,,,,,,,,,,,,,,,,,,,,367.9836088999873,None,367.9836088999873,None,367.4832784999162,None,j,1.6494274000870064,367.9836088999873,None,,,,,,,,,,,,,e,001,2021_Jul_02_1043,toilet,2021.1.3,99.90189631187896,
180,0,4,-4,1.15,,,,,0,0,0,0,1,40,96,55,,,,,,,,,,,,,,,,,,,,,,,370.63543059991207,None,370.63543059991207,None,370.1350988999475,None,f,0.4856869999784976,370.63543059991207,None,,,,,,,,,,,,,e,001,2021_Jul_02_1043,toilet,2021.1.3,99.90189631187896,
0,180,-4,4,0.97,,,,,0,0,0,0,1,41,97,16,,,,,,,,,,,,,,,,,,,,,,,372.12643870001193,None,372.12643870001193,None,371.62610280001536,None,f,0.7387057000305504,372.12643870001193,None,,,,,,,,,,,,,e,001,2021_Jul_02_1043,toilet,2021.1.3,99.90189631187896,
0,180,-4,4,1.06,,,,,0,0,0,0,1,42,98,19,,,,,,,,,,,,,,,,,,,,,,,373.86762279993854,None,373.86762279993854,None,373.3672817000188,None,j,0.4215958999702707,373.86762279993854,None,,,,,,,,,,,,,e,001,2021_Jul_02_1043,toilet,2021.1.3,99.90189631187896,
180,180,-4,4,1.03,,,,,0,0,0,0,1,43,99,32,,,,,,,,,,,,,,,,,,,,,,,375.2986651000101,None,375.2986651000101,None,374.79826469998807,None,f,3.518510999972932,375.2986651000101,None,,,,,,,,,,,,,e,001,2021_Jul_02_1043,toilet,2021.1.3,99.90189631187896,
180,0,4,-4,1.0,,,,,0,0,0,0,1,44,100,52,,,,,,,,,,,,,,,,,,,,,,,379.84166679996997,None,379.84166679996997,None,379.3413279999513,None,f,1.663377699907869,379.84166679996997,None,,,,,,,,,,,,,e,001,2021_Jul_02_1043,toilet,2021.1.3,99.90189631187896,
0,0,4,-4,0.94,,,,,0,0,0,0,1,45,101,8,,,,,,,,,,,,,,,,,,,,,,,382.5135750999907,None,382.5135750999907,None,382.01313669991214,None,j,0.46350889990571886,382.5135750999907,None,,,,,,,,,,,,,e,001,2021_Jul_02_1043,toilet,2021.1.3,99.90189631187896,
0,0,4,-4,1.0,,,,,0,0,0,0,1,46,102,10,,,,,,,,,,,,,,,,,,,,,,,383.9845117999939,None,383.9845117999939,None,383.4842223000014,None,j,0.4166384000563994,383.9845117999939,None,,,,,,,,,,,,,e,001,2021_Jul_02_1043,toilet,2021.1.3,99.90189631187896,
0,0,-4,4,1.0,,,,,0,0,0,0,1,47,103,3,,,,,,,,,,,,,,,,,,,,,,,385.4054328999482,None,385.4054328999482,None,384.90509669994935,None,j,0.5317149999318644,385.4054328999482,None,,,,,,,,,,,,,e,001,2021_Jul_02_1043,toilet,2021.1.3,99.90189631187896,
0,0,4,-4,0.97,,,,,0,0,0,0,1,48,104,9,,,,,,,,,,,,,,,,,,,,,,,386.9464789999183,None,386.9464789999183,None,386.4461413999088,None,j,0.47867440001573414,386.9464789999183,None,,,,,,,,,,,,,e,001,2021_Jul_02_1043,toilet,2021.1.3,99.90189631187896,
180,0,-4,4,1.03,,,,,0,0,0,0,1,49,105,46,,,,,,,,,,,,,,,,,,,,,,,388.4374900999246,None,388.4374900999246,None,387.9371494000079,None,f,2.1717002999503165,388.4374900999246,None,,,,,,,,,,,,,e,001,2021_Jul_02_1043,toilet,2021.1.3,99.90189631187896,
180,0,4,-4,0.85,,,,,0,0,0,0,1,50,106,49,,,,,,,,,,,,,,,,,,,,,,,391.6196445999667,None,391.6196445999667,None,391.1193363999482,None,j,0.3974735999945551,391.6196445999667,None,,,,,,,,,,,,,e,001,2021_Jul_02_1043,toilet,2021.1.3,99.90189631187896,
180,0,4,-4,1.06,,,,,0,0,0,0,1,51,107,54,,,,,,,,,,,,,,,,,,,,,,,393.0205970000243,None,393.0205970000243,None,392.5202532999683,None,f,1.8125607999973,393.0205970000243,None,,,,,,,,,,,,,e,001,2021_Jul_02_1043,toilet,2021.1.3,99.90189631187896,
180,180,4,-4,1.06,,,,,0,0,0,0,1,52,108,40,,,,,,,,,,,,,,,,,,,,,,,395.84250409994274,None,395.84250409994274,None,395.3521800999297,None,f,0.8147173000033945,395.84250409994274,None,,,,,,,,,,,,,e,001,2021_Jul_02_1043,toilet,2021.1.3,99.90189631187896,
180,180,4,-4,1.03,,,,,0,0,0,0,1,53,109,39,,,,,,,,,,,,,,,,,,,,,,,397.67374619992916,None,397.67374619992916,None,397.1734894999536,None,f,0.7754163999343291,397.67374619992916,None,,,,,,,,,,,,,e,001,2021_Jul_02_1043,toilet,2021.1.3,99.90189631187896,
180,0,4,-4,1.03,,,,,0,0,0,0,1,54,110,53,,,,,,,,,,,,,,,,,,,,,,,399.4549538999563,None,399.4549538999563,None,398.95461169991177,None,j,1.6980800000019372,399.4549538999563,None,,,,,,,,,,,,,e,001,2021_Jul_02_1043,toilet,2021.1.3,99.90189631187896,
180,180,-4,4,0.85,,,,,0,0,0,0,1,55,111,28,,,,,,,,,,,,,,,,,,,,,,,402.15678359998856,None,402.15678359998856,None,401.65644599997904,None,j,0.48425540002062917,402.15678359998856,None,,,,,,,,,,,,,e,001,2021_Jul_02_1043,toilet,2021.1.3,99.90189631187896,
,,,,,,,,,0,0,0,0,,,,,,,,,,,,,,,,,,,,,,,,,,,,,,,,,,,,,402.66716920002364,None,space,7.558057699934579,402.66716920002364,None,,,,,,,e,001,2021_Jul_02_1043,toilet,2021.1.3,99.90189631187896,
0,180,-4,4,1.06,,,,,1,0,1,0,0,0,0,19,,,,,,,,,,,,,,,,,410.25231469993014,None,space,4.164793100091629,410.25231469993014,None,415.4357756000245,None,415.4357756000245,None,414.93544139992446,None,j,0.7254014000063762,415.4357756000245,None,,,,,,,,,,,,,e,001,2021_Jul_02_1043,toilet,2021.1.3,99.90189631187896,
180,180,-4,4,1.15,,,,,1,0,1,0,0,1,1,34,,,,,,,,,,,,,,,,,,,,,,,417.18696279998403,None,417.18696279998403,None,416.6866246999707,None,j,0.4461868000216782,417.18696279998403,None,,,,,,,,,,,,,e,001,2021_Jul_02_1043,toilet,2021.1.3,99.90189631187896,
180,180,-4,4,1.03,,,,,1,0,1,0,0,2,2,32,,,,,,,,,,,,,,,,,,,,,,,418.6579655999085,None,418.6579655999085,None,418.1576227999758,None,j,1.3112951000221074,418.6579655999085,None,,,,,,,,,,,,,e,001,2021_Jul_02_1043,toilet,2021.1.3,99.90189631187896,
180,0,4,-4,1.06,,,,,1,0,1,0,0,3,3,54,,,,,,,,,,,,,,,,,,,,,,,420.9795351999346,None,420.9795351999346,None,420.4791929000057,None,f,0.5574733000248671,420.9795351999346,None,,,,,,,,,,,,,e,001,2021_Jul_02_1043,toilet,2021.1.3,99.90189631187896,
180,0,4,-4,1.03,,,,,1,0,1,0,0,4,4,53,,,,,,,,,,,,,,,,,,,,,,,422.5405871999683,None,422.5405871999683,None,422.04025149997324,None,f,1.5086352999787778,422.5405871999683,None,,,,,,,,,,,,,e,001,2021_Jul_02_1043,toilet,2021.1.3,99.90189631187896,
0,180,-4,4,1.0,,,,,1,0,1,0,0,5,5,17,,,,,,,,,,,,,,,,,,,,,,,425.07230449991766,None,425.07230449991766,None,424.57196919992566,None,f,0.657110600033775,425.07230449991766,None,,,,,,,,,,,,,e,001,2021_Jul_02_1043,toilet,2021.1.3,99.90189631187896,
0,0,-4,4,1.15,,,,,1,0,1,0,0,6,6,6,,,,,,,,,,,,,,,,,,,,,,,426.7435234999284,None,426.7435234999284,None,426.24318939994555,None,j,0.48956570005975664,426.7435234999284,None,,,,,,,,,,,,,e,001,2021_Jul_02_1043,toilet,2021.1.3,99.90189631187896,
0,180,4,-4,0.94,,,,,1,0,1,0,0,7,7,22,,,,,,,,,,,,,,,,,,,,,,,428.24445949995425,None,428.24445949995425,None,427.74419090000447,None,j,0.5085338999051601,428.24445949995425,None,,,,,,,,,,,,,e,001,2021_Jul_02_1043,toilet,2021.1.3,99.90189631187896,
180,0,4,-4,0.85,,,,,1,0,1,0,0,8,8,49,,,,,,,,,,,,,,,,,,,,,,,429.7554584000027,None,429.7554584000027,None,429.25516659999266,None,j,0.5015842999564484,429.7554584000027,None,,,,,,,,,,,,,e,001,2021_Jul_02_1043,toilet,2021.1.3,99.90189631187896,
180,0,-4,4,0.85,,,,,1,0,1,0,0,9,9,42,,,,,,,,,,,,,,,,,,,,,,,431.2564989000093,None,431.2564989000093,None,430.7561610999983,None,f,0.48872460005804896,431.2564989000093,None,,,,,,,,,,,,,e,001,2021_Jul_02_1043,toilet,2021.1.3,99.90189631187896,
0,0,4,-4,1.03,,,,,1,0,1,0,0,10,10,11,,,,,,,,,,,,,,,,,,,,,,,432.75751709996257,None,432.75751709996257,None,432.25717409991194,None,f,0.6196273999521509,432.75751709996257,None,,,,,,,,,,,,,e,001,2021_Jul_02_1043,toilet,2021.1.3,99.90189631187896,
0,0,4,-4,1.06,,,,,1,0,1,0,0,11,11,12,,,,,,,,,,,,,,,,,,,,,,,434.38870659994427,None,434.38870659994427,None,433.8882785999449,None,f,0.4444724000059068,434.38870659994427,None,,,,,,,,,,,,,e,001,2021_Jul_02_1043,toilet,2021.1.3,99.90189631187896,
180,180,4,-4,0.85,,,,,1,0,1,0,0,12,12,35,,,,,,,,,,,,,,,,,,,,,,,435.8495934999082,None,435.8495934999082,None,435.34926409996115,None,j,0.48739110003225505,435.8495934999082,None,,,,,,,,,,,,,e,001,2021_Jul_02_1043,toilet,2021.1.3,99.90189631187896,
0,0,-4,4,0.85,,,,,1,0,1,0,0,13,13,0,,,,,,,,,,,,,,,,,,,,,,,437.3406107999617,None,437.3406107999617,None,436.84027469996363,None,f,0.4524935999652371,437.3406107999617,None,,,,,,,,,,,,,e,001,2021_Jul_02_1043,toilet,2021.1.3,99.90189631187896,
0,180,4,-4,1.03,,,,,1,0,1,0,0,14,14,25,,,,,,,,,,,,,,,,,,,,,,,438.81160879996605,None,438.81160879996605,None,438.3112686999375,None,f,1.8616193999769166,438.81160879996605,None,,,,,,,,,,,,,e,001,2021_Jul_02_1043,toilet,2021.1.3,99.90189631187896,
0,180,-4,4,0.94,,,,,1,0,1,0,0,15,15,15,,,,,,,,,,,,,,,,,,,,,,,441.6836529999273,None,441.6836529999273,None,441.183215499972,None,f,0.6855655000545084,441.6836529999273,None,,,,,,,,,,,,,e,001,2021_Jul_02_1043,toilet,2021.1.3,99.90189631187896,
0,180,4,-4,0.85,,,,,1,0,1,0,0,16,16,21,,,,,,,,,,,,,,,,,,,,,,,443.4247556999326,None,443.4247556999326,None,442.92439379997086,None,j,0.5762088999617845,443.4247556999326,None,,,,,,,,,,,,,e,001,2021_Jul_02_1043,toilet,2021.1.3,99.90189631187896,
180,180,-4,4,0.94,,,,,1,0,1,0,0,17,17,29,,,,,,,,,,,,,,,,,,,,,,,445.005808899994,None,445.005808899994,None,444.50547089998145,None,f,0.5311764000216499,445.005808899994,None,,,,,,,,,,,,,e,001,2021_Jul_02_1043,toilet,2021.1.3,99.90189631187896,
180,0,-4,4,1.03,,,,,1,0,1,0,0,18,18,46,,,,,,,,,,,,,,,,,,,,,,,446.54685259994585,None,446.54685259994585,None,446.0465087000048,None,j,0.4781688000075519,446.54685259994585,None,,,,,,,,,,,,,e,001,2021_Jul_02_1043,toilet,2021.1.3,99.90189631187896,
180,0,-4,4,1.15,,,,,1,0,1,0,0,19,19,48,,,,,,,,,,,,,,,,,,,,,,,448.03796019998845,None,448.03796019998845,None,447.53752939996775,None,j,0.47501079994253814,448.03796019998845,None,,,,,,,,,,,,,e,001,2021_Jul_02_1043,toilet,2021.1.3,99.90189631187896,
0,0,4,-4,0.85,,,,,1,0,1,0,0,20,20,7,,,,,,,,,,,,,,,,,,,,,,,449.5189019999234,None,449.5189019999234,None,449.01861619995907,None,j,0.5300390999764204,449.5189019999234,None,,,,,,,,,,,,,e,001,2021_Jul_02_1043,toilet,2021.1.3,99.90189631187896,
0,180,-4,4,1.03,,,,,1,0,1,0,0,21,21,18,,,,,,,,,,,,,,,,,,,,,,,451.0498999999836,None,451.0498999999836,None,450.54956489999313,None,j,1.1910115000791848,451.0498999999836,None,,,,,,,,,,,,,e,001,2021_Jul_02_1043,toilet,2021.1.3,99.90189631187896,
180,0,-4,4,1.0,,,,,1,0,1,0,0,22,22,45,,,,,,,,,,,,,,,,,,,,,,,453.241404099972,None,453.241404099972,None,452.7410467999289,None,j,1.7195631999056786,453.241404099972,None,,,,,,,,,,,,,e,001,2021_Jul_02_1043,toilet,2021.1.3,99.90189631187896,
180,180,4,-4,0.97,,,,,1,0,1,0,0,23,23,37,,,,,,,,,,,,,,,,,,,,,,,455.9633291999344,None,455.9633291999344,None,455.46288739994634,None,j,1.2857988000614569,455.9633291999344,None,,,,,,,,,,,,,e,001,2021_Jul_02_1043,toilet,2021.1.3,99.90189631187896,
0,0,-4,4,0.94,,,,,1,0,1,0,0,24,24,1,,,,,,,,,,,,,,,,,,,,,,,458.26478610001504,None,458.26478610001504,None,457.76444659999106,None,f,1.1122736000688747,458.26478610001504,None,,,,,,,,,,,,,e,001,2021_Jul_02_1043,toilet,2021.1.3,99.90189631187896,
0,0,4,-4,0.94,,,,,1,0,1,0,0,25,25,8,,,,,,,,,,,,,,,,,,,,,,,460.3862268999219,None,460.3862268999219,None,459.88591760001145,None,j,0.5907372999936342,460.3862268999219,None,,,,,,,,,,,,,e,001,2021_Jul_02_1043,toilet,2021.1.3,99.90189631187896,
180,0,-4,4,0.97,,,,,1,0,1,0,0,26,26,44,,,,,,,,,,,,,,,,,,,,,,,461.9773296000203,None,461.9773296000203,None,461.4769634999102,None,f,2.535772099974565,461.9773296000203,None,,,,,,,,,,,,,e,001,2021_Jul_02_1043,toilet,2021.1.3,99.90189631187896,
0,180,4,-4,1.15,,,,,1,0,1,0,0,27,27,27,,,,,,,,,,,,,,,,,,,,,,,465.52970909990836,None,465.52970909990836,None,465.02947139996104,None,f,2.8072118000127375,465.52970909990836,None,,,,,,,,,,,,,e,001,2021_Jul_02_1043,toilet,2021.1.3,99.90189631187896,
0,0,4,-4,0.97,,,,,1,0,1,0,0,28,28,9,,,,,,,,,,,,,,,,,,,,,,,469.34228829992935,None,469.34228829992935,None,468.8419517999282,None,j,0.7069692999357358,469.34228829992935,None,,,,,,,,,,,,,e,001,2021_Jul_02_1043,toilet,2021.1.3,99.90189631187896,
180,180,-4,4,0.97,,,,,1,0,1,0,0,29,29,30,,,,,,,,,,,,,,,,,,,,,,,471.06354869995266,None,471.06354869995266,None,470.5630953999935,None,f,2.0415540999965742,471.06354869995266,None,,,,,,,,,,,,,e,001,2021_Jul_02_1043,toilet,2021.1.3,99.90189631187896,
0,180,4,-4,1.06,,,,,1,0,1,0,0,30,30,26,,,,,,,,,,,,,,,,,,,,,,,474.10551489994396,None,474.10551489994396,None,473.60517729993444,None,f,2.4235408999957144,474.10551489994396,None,,,,,,,,,,,,,e,001,2021_Jul_02_1043,toilet,2021.1.3,99.90189631187896,
180,180,4,-4,0.94,,,,,1,0,1,0,0,31,31,36,,,,,,,,,,,,,,,,,,,,,,,477.55785799992736,None,477.55785799992736,None,477.0575156999985,None,j,0.7632390999933705,477.55785799992736,None,,,,,,,,,,,,,e,001,2021_Jul_02_1043,toilet,2021.1.3,99.90189631187896,
0,180,-4,4,1.15,,,,,1,0,1,0,0,32,32,20,,,,,,,,,,,,,,,,,,,,,,,479.3291270999471,None,479.3291270999471,None,478.8388199999463,None,j,0.43187219998799264,479.3291270999471,None,,,,,,,,,,,,,e,001,2021_Jul_02_1043,toilet,2021.1.3,99.90189631187896,
0,180,-4,4,0.97,,,,,1,0,1,0,0,33,33,16,,,,,,,,,,,,,,,,,,,,,,,480.77003000001423,None,480.77003000001423,None,480.26968759996817,None,f,0.6709119000006467,480.77003000001423,None,,,,,,,,,,,,,e,001,2021_Jul_02_1043,toilet,2021.1.3,99.90189631187896,
180,180,-4,4,0.85,,,,,1,0,1,0,0,34,34,28,,,,,,,,,,,,,,,,,,,,,,,482.4418221999658,None,482.4418221999658,None,481.94082679995336,None,f,0.519216199987568,482.4418221999658,None,,,,,,,,,,,,,e,001,2021_Jul_02_1043,toilet,2021.1.3,99.90189631187896,
180,180,-4,4,1.0,,,,,1,0,1,0,0,35,35,31,,,,,,,,,,,,,,,,,,,,,,,483.9722049999982,None,483.9722049999982,None,483.4718582999194,None,f,0.5248991000698879,483.9722049999982,None,,,,,,,,,,,,,e,001,2021_Jul_02_1043,toilet,2021.1.3,99.90189631187896,
0,0,-4,4,0.97,,,,,1,0,1,0,0,36,36,2,,,,,,,,,,,,,,,,,,,,,,,485.51324260002,None,485.51324260002,None,485.01294309995137,None,j,1.3038850000593811,485.51324260002,None,,,,,,,,,,,,,e,001,2021_Jul_02_1043,toilet,2021.1.3,99.90189631187896,
180,180,4,-4,1.06,,,,,1,0,1,0,0,37,37,40,,,,,,,,,,,,,,,,,,,,,,,487.83481919998303,None,487.83481919998303,None,487.334474699921,None,f,0.6461290000006557,487.83481919998303,None,,,,,,,,,,,,,e,001,2021_Jul_02_1043,toilet,2021.1.3,99.90189631187896,
180,0,4,-4,1.15,,,,,1,0,1,0,0,38,38,55,,,,,,,,,,,,,,,,,,,,,,,489.4859477999853,None,489.4859477999853,None,488.98559479997493,None,f,0.4990078000118956,489.4859477999853,None,,,,,,,,,,,,,e,001,2021_Jul_02_1043,toilet,2021.1.3,99.90189631187896,
0,0,-4,4,1.06,,,,,1,0,1,0,0,39,39,5,,,,,,,,,,,,,,,,,,,,,,,490.98694869992323,None,490.98694869992323,None,490.4866137999343,None,j,0.48599700001068413,490.98694869992323,None,,,,,,,,,,,,,e,001,2021_Jul_02_1043,toilet,2021.1.3,99.90189631187896,
0,0,-4,4,1.03,,,,,1,0,1,0,0,40,40,4,,,,,,,,,,,,,,,,,,,,,,,492.48805579997133,None,492.48805579997133,None,491.98762569995597,None,j,0.44087709998711944,492.48805579997133,None,,,,,,,,,,,,,e,001,2021_Jul_02_1043,toilet,2021.1.3,99.90189631187896,
180,0,-4,4,0.94,,,,,1,0,1,0,0,41,41,43,,,,,,,,,,,,,,,,,,,,,,,493.9290199999232,None,493.9290199999232,None,493.4286471999949,None,f,0.5359405999770388,493.9290199999232,None,,,,,,,,,,,,,e,001,2021_Jul_02_1043,toilet,2021.1.3,99.90189631187896,
180,0,4,-4,0.97,,,,,1,0,1,0,0,42,42,51,,,,,,,,,,,,,,,,,,,,,,,495.47999569994863,None,495.47999569994863,None,494.979651200003,None,j,0.40894579992163926,495.47999569994863,None,,,,,,,,,,,,,e,001,2021_Jul_02_1043,toilet,2021.1.3,99.90189631187896,
180,0,4,-4,1.0,,,,,1,0,1,0,0,43,43,52,,,,,,,,,,,,,,,,,,,,,,,496.8909489000216,None,496.8909489000216,None,496.390612600022,None,j,0.45406949997413903,496.8909489000216,None,,,,,,,,,,,,,e,001,2021_Jul_02_1043,toilet,2021.1.3,99.90189631187896,
0,180,-4,4,0.85,,,,,1,0,1,0,0,44,44,14,,,,,,,,,,,,,,,,,,,,,,,498.35194089997094,None,498.35194089997094,None,497.8515965999104,None,f,0.49711969995405525,498.35194089997094,None,,,,,,,,,,,,,e,001,2021_Jul_02_1043,toilet,2021.1.3,99.90189631187896,
180,0,-4,4,1.06,,,,,1,0,1,0,0,45,45,47,,,,,,,,,,,,,,,,,,,,,,,499.85304409998935,None,499.85304409998935,None,499.35261179995723,None,j,0.4199592999648303,499.85304409998935,None,,,,,,,,,,,,,e,001,2021_Jul_02_1043,toilet,2021.1.3,99.90189631187896,
180,180,4,-4,1.15,,,,,1,0,1,0,0,46,46,41,,,,,,,,,,,,,,,,,,,,,,,501.2840129999677,None,501.2840129999677,None,500.7835810999386,None,f,0.41304519993718714,501.2840129999677,None,,,,,,,,,,,,,e,001,2021_Jul_02_1043,toilet,2021.1.3,99.90189631187896,
0,0,4,-4,1.15,,,,,1,0,1,0,0,47,47,13,,,,,,,,,,,,,,,,,,,,,,,502.71489089995157,None,502.71489089995157,None,502.2145554999588,None,f,0.5021422000136226,502.71489089995157,None,,,,,,,,,,,,,e,001,2021_Jul_02_1043,toilet,2021.1.3,99.90189631187896,
180,180,4,-4,1.0,,,,,1,0,1,0,0,48,48,38,,,,,,,,,,,,,,,,,,,,,,,504.2259232000215,None,504.2259232000215,None,503.7255776999518,None,j,0.383110300055705,504.2259232000215,None,,,,,,,,,,,,,e,001,2021_Jul_02_1043,toilet,2021.1.3,99.90189631187896,
180,180,4,-4,1.03,,,,,1,0,1,0,0,49,49,39,,,,,,,,,,,,,,,,,,,,,,,505.62687199993525,None,505.62687199993525,None,505.1265240999637,None,f,0.5501835999311879,505.62687199993525,None,,,,,,,,,,,,,e,001,2021_Jul_02_1043,toilet,2021.1.3,99.90189631187896,
180,180,-4,4,1.06,,,,,1,0,1,0,0,50,50,33,,,,,,,,,,,,,,,,,,,,,,,507.1879237999674,None,507.1879237999674,None,506.6875866999617,None,j,0.3489975999109447,507.1879237999674,None,,,,,,,,,,,,,e,001,2021_Jul_02_1043,toilet,2021.1.3,99.90189631187896,
0,0,-4,4,1.0,,,,,1,0,1,0,0,51,51,3,,,,,,,,,,,,,,,,,,,,,,,508.53892139997333,None,508.53892139997333,None,508.0385856999783,None,f,0.5339996999828145,508.53892139997333,None,,,,,,,,,,,,,e,001,2021_Jul_02_1043,toilet,2021.1.3,99.90189631187896,
0,0,4,-4,1.0,,,,,1,0,1,0,0,52,52,10,,,,,,,,,,,,,,,,,,,,,,,510.08988599991426,None,510.08988599991426,None,509.5895465000067,None,f,0.4550405000336468,510.08988599991426,None,,,,,,,,,,,,,e,001,2021_Jul_02_1043,toilet,2021.1.3,99.90189631187896,
0,180,4,-4,1.0,,,,,1,0,1,0,0,53,53,24,,,,,,,,,,,,,,,,,,,,,,,511.55088019999675,None,511.55088019999675,None,511.0505385999568,None,f,2.5781778000527993,511.55088019999675,None,,,,,,,,,,,,,e,001,2021_Jul_02_1043,toilet,2021.1.3,99.90189631187896,
0,180,4,-4,0.97,,,,,1,0,1,0,0,54,54,23,,,,,,,,,,,,,,,,,,,,,,,515.1433076999383,None,515.1433076999383,None,514.643063699943,None,j,0.6975928000174463,515.1433076999383,None,,,,,,,,,,,,,e,001,2021_Jul_02_1043,toilet,2021.1.3,99.90189631187896,
180,0,4,-4,0.94,,,,,1,0,1,0,0,55,55,50,,,,,,,,,,,,,,,,,,,,,,,516.8444595999317,None,516.8444595999317,None,516.3442147999303,None,j,0.4844647999852896,516.8444595999317,None,,,,,,,,,,,,,e,001,2021_Jul_02_1043,toilet,2021.1.3,99.90189631187896,
180,0,4,-4,1.03,,,,,1,0,1,0,1,0,56,53,,,,,,,,,,,,,,,,,,,,,,,518.3354804000119,None,518.3354804000119,None,517.8351314999163,None,f,0.6735352000687271,518.3354804000119,None,,,,,,,,,,,,,e,001,2021_Jul_02_1043,toilet,2021.1.3,99.90189631187896,
180,0,4,-4,0.94,,,,,1,0,1,0,1,1,57,50,,,,,,,,,,,,,,,,,,,,,,,520.0166088999249,None,520.0166088999249,None,519.516276899958,None,j,0.7362756000366062,520.0166088999249,None,,,,,,,,,,,,,e,001,2021_Jul_02_1043,toilet,2021.1.3,99.90189631187896,
180,180,4,-4,1.15,,,,,1,0,1,0,1,2,58,41,,,,,,,,,,,,,,,,,,,,,,,521.7578712999821,None,521.7578712999821,None,521.2574515999295,None,f,0.4829996000044048,521.7578712999821,None,,,,,,,,,,,,,e,001,2021_Jul_02_1043,toilet,2021.1.3,99.90189631187896,
0,0,4,-4,1.03,,,,,1,0,1,0,1,3,59,11,,,,,,,,,,,,,,,,,,,,,,,523.2488809999777,None,523.2488809999777,None,522.7485759999836,None,j,0.5761172999627888,523.2488809999777,None,,,,,,,,,,,,,e,001,2021_Jul_02_1043,toilet,2021.1.3,99.90189631187896,
180,180,4,-4,1.06,,,,,1,0,1,0,1,4,60,40,,,,,,,,,,,,,,,,,,,,,,,524.8398770999629,None,524.8398770999629,None,524.3395384999458,None,f,1.6410001999465749,524.8398770999629,None,,,,,,,,,,,,,e,001,2021_Jul_02_1043,toilet,2021.1.3,99.90189631187896,
180,180,-4,4,0.97,,,,,1,0,1,0,1,5,61,30,,,,,,,,,,,,,,,,,,,,,,,527.4816656999756,None,527.4816656999756,None,526.9813245999394,None,f,0.503413499915041,527.4816656999756,None,,,,,,,,,,,,,e,001,2021_Jul_02_1043,toilet,2021.1.3,99.90189631187896,
0,180,4,-4,0.85,,,,,1,0,1,0,1,6,62,21,,,,,,,,,,,,,,,,,,,,,,,529.0127040999942,None,529.0127040999942,None,528.5123606999405,None,j,0.4282538000261411,529.0127040999942,None,,,,,,,,,,,,,e,001,2021_Jul_02_1043,toilet,2021.1.3,99.90189631187896,
180,180,4,-4,1.0,,,,,1,0,1,0,1,7,63,38,,,,,,,,,,,,,,,,,,,,,,,530.4537696000189,None,530.4537696000189,None,529.9534327000147,None,f,0.8913024000357836,530.4537696000189,None,,,,,,,,,,,,,e,001,2021_Jul_02_1043,toilet,2021.1.3,99.90189631187896,
180,180,-4,4,1.03,,,,,1,0,1,0,1,8,64,32,,,,,,,,,,,,,,,,,,,,,,,532.3549648999469,None,532.3549648999469,None,531.8546273999382,None,j,1.0539429999189451,532.3549648999469,None,,,,,,,,,,,,,e,001,2021_Jul_02_1043,toilet,2021.1.3,99.90189631187896,
0,0,-4,4,1.06,,,,,1,0,1,0,1,9,65,5,,,,,,,,,,,,,,,,,,,,,,,534.4163753999164,None,534.4163753999164,None,533.9160246999236,None,j,0.49653360003139824,534.4163753999164,None,,,,,,,,,,,,,e,001,2021_Jul_02_1043,toilet,2021.1.3,99.90189631187896,
180,0,-4,4,1.03,,,,,1,0,1,0,1,10,66,46,,,,,,,,,,,,,,,,,,,,,,,535.9173798999982,None,535.9173798999982,None,535.4170409999788,None,f,1.891736700083129,535.9173798999982,None,,,,,,,,,,,,,e,001,2021_Jul_02_1043,toilet,2021.1.3,99.90189631187896,
0,0,-4,4,0.97,,,,,1,0,1,0,1,11,67,2,,,,,,,,,,,,,,,,,,,,,,,538.8193414999405,None,538.8193414999405,None,538.3190035999287,None,j,0.6695347999921069,538.8193414999405,None,,,,,,,,,,,,,e,001,2021_Jul_02_1043,toilet,2021.1.3,99.90189631187896,
180,0,-4,4,0.94,,,,,1,0,1,0,1,12,68,43,,,,,,,,,,,,,,,,,,,,,,,540.4904770000139,None,540.4904770000139,None,539.9901360999793,None,f,0.5664049000479281,540.4904770000139,None,,,,,,,,,,,,,e,001,2021_Jul_02_1043,toilet,2021.1.3,99.90189631187896,
0,180,-4,4,1.06,,,,,1,0,1,0,1,13,69,19,,,,,,,,,,,,,,,,,,,,,,,542.061538000009,None,542.061538000009,None,541.5611996999942,None,j,1.1233345000073314,542.061538000009,None,,,,,,,,,,,,,e,001,2021_Jul_02_1043,toilet,2021.1.3,99.90189631187896,
180,0,-4,4,0.85,,,,,1,0,1,0,1,14,70,42,,,,,,,,,,,,,,,,,,,,,,,544.1930751999607,None,544.1930751999607,None,543.6926436999347,None,f,0.36791979998815805,544.1930751999607,None,,,,,,,,,,,,,e,001,2021_Jul_02_1043,toilet,2021.1.3,99.90189631187896,
0,0,4,-4,0.97,,,,,1,0,1,0,1,15,71,9,,,,,,,,,,,,,,,,,,,,,,,545.574004999944,None,545.574004999944,None,545.0736227999441,None,j,0.6348183000227436,545.574004999944,None,,,,,,,,,,,,,e,001,2021_Jul_02_1043,toilet,2021.1.3,99.90189631187896,
0,180,-4,4,1.15,,,,,1,0,1,0,1,16,72,20,,,,,,,,,,,,,,,,,,,,,,,547.2150286999531,None,547.2150286999531,None,546.7146862000227,None,j,0.4658028999110684,547.2150286999531,None,,,,,,,,,,,,,e,001,2021_Jul_02_1043,toilet,2021.1.3,99.90189631187896,
0,180,-4,4,0.94,,,,,1,0,1,0,1,17,73,15,,,,,,,,,,,,,,,,,,,,,,,548.6860261999536,None,548.6860261999536,None,548.1856854999205,None,f,0.5628356999950483,548.6860261999536,None,,,,,,,,,,,,,e,001,2021_Jul_02_1043,toilet,2021.1.3,99.90189631187896,
180,0,4,-4,1.0,,,,,1,0,1,0,1,18,74,52,,,,,,,,,,,,,,,,,,,,,,,550.2570902999723,None,550.2570902999723,None,549.7567488999339,None,j,0.5441159999463707,550.2570902999723,None,,,,,,,,,,,,,e,001,2021_Jul_02_1043,toilet,2021.1.3,99.90189631187896,
180,0,-4,4,1.06,,,,,1,0,1,0,1,19,75,47,,,,,,,,,,,,,,,,,,,,,,,551.808236300014,None,551.808236300014,None,551.3078015999636,None,j,1.0887737000593916,551.808236300014,None,,,,,,,,,,,,,e,001,2021_Jul_02_1043,toilet,2021.1.3,99.90189631187896,
180,0,-4,4,0.97,,,,,1,0,1,0,1,20,76,44,,,,,,,,,,,,,,,,,,,,,,,553.9095697000157,None,553.9095697000157,None,553.4091981999809,None,j,1.4672909000655636,553.9095697000157,None,,,,,,,,,,,,,e,001,2021_Jul_02_1043,toilet,2021.1.3,99.90189631187896,
180,180,4,-4,1.03,,,,,1,0,1,0,1,21,77,39,,,,,,,,,,,,,,,,,,,,,,,556.3812343999743,None,556.3812343999743,None,555.8808966999641,None,f,1.1396436000941321,556.3812343999743,None,,,,,,,,,,,,,e,001,2021_Jul_02_1043,toilet,2021.1.3,99.90189631187896,
0,180,4,-4,1.15,,,,,1,0,1,0,1,22,78,27,,,,,,,,,,,,,,,,,,,,,,,558.5331903999904,None,558.5331903999904,None,558.0323587999446,None,f,0.5556661000009626,558.5331903999904,None,,,,,,,,,,,,,e,001,2021_Jul_02_1043,toilet,2021.1.3,99.90189631187896,
0,180,4,-4,0.94,,,,,1,0,1,0,1,23,79,22,,,,,,,,,,,,,,,,,,,,,,,560.0938284000149,None,560.0938284000149,None,559.5934921000153,None,j,0.45100920007098466,560.0938284000149,None,,,,,,,,,,,,,e,001,2021_Jul_02_1043,toilet,2021.1.3,99.90189631187896,
0,0,4,-4,1.06,,,,,1,0,1,0,1,24,80,12,,,,,,,,,,,,,,,,,,,,,,,561.5447327999864,None,561.5447327999864,None,561.0443933999632,None,f,0.6001703999936581,561.5447327999864,None,,,,,,,,,,,,,e,001,2021_Jul_02_1043,toilet,2021.1.3,99.90189631187896,
180,180,-4,4,0.85,,,,,1,0,1,0,1,25,81,28,,,,,,,,,,,,,,,,,,,,,,,563.1458168999525,None,563.1458168999525,None,562.6454766999232,None,f,0.4551097999792546,563.1458168999525,None,,,,,,,,,,,,,e,001,2021_Jul_02_1043,toilet,2021.1.3,99.90189631187896,
0,0,4,-4,0.85,,,,,1,0,1,0,1,26,82,7,,,,,,,,,,,,,,,,,,,,,,,564.6068078000098,None,564.6068078000098,None,564.106467799982,None,j,0.4661082000238821,564.6068078000098,None,,,,,,,,,,,,,e,001,2021_Jul_02_1043,toilet,2021.1.3,99.90189631187896,
180,180,-4,4,1.06,,,,,1,0,1,0,1,27,83,33,,,,,,,,,,,,,,,,,,,,,,,566.087898699916,None,566.087898699916,None,565.5874959999928,None,j,0.8730094000929967,566.087898699916,None,,,,,,,,,,,,,e,001,2021_Jul_02_1043,toilet,2021.1.3,99.90189631187896,
180,180,-4,4,1.15,,,,,1,0,1,0,1,28,84,34,,,,,,,,,,,,,,,,,,,,,,,567.9791232999414,None,567.9791232999414,None,567.4788439999102,None,j,0.4857766000786796,567.9791232999414,None,,,,,,,,,,,,,e,001,2021_Jul_02_1043,toilet,2021.1.3,99.90189631187896,
180,180,4,-4,0.94,,,,,1,0,1,0,1,29,85,36,,,,,,,,,,,,,,,,,,,,,,,569.4700986999087,None,569.4700986999087,None,568.9697611000156,None,j,1.7309660000028089,569.4700986999087,None,,,,,,,,,,,,,e,001,2021_Jul_02_1043,toilet,2021.1.3,99.90189631187896,
0,180,4,-4,1.03,,,,,1,0,1,0,1,30,86,25,,,,,,,,,,,,,,,,,,,,,,,572.2119620000012,None,572.2119620000012,None,571.7116173999384,None,f,1.2451194999739528,572.2119620000012,None,,,,,,,,,,,,,e,001,2021_Jul_02_1043,toilet,2021.1.3,99.90189631187896,
0,0,-4,4,0.94,,,,,1,0,1,0,1,31,87,1,,,,,,,,,,,,,,,,,,,,,,,574.4835772999795,None,574.4835772999795,None,573.9831616999581,None,f,0.7654435000149533,574.4835772999795,None,,,,,,,,,,,,,e,001,2021_Jul_02_1043,toilet,2021.1.3,99.90189631187896,
0,0,-4,4,1.0,,,,,1,0,1,0,1,32,88,3,,,,,,,,,,,,,,,,,,,,,,,576.2646996999392,None,576.2646996999392,None,575.7643599999137,None,j,0.4721983999479562,576.2646996999392,None,,,,,,,,,,,,,e,001,2021_Jul_02_1043,toilet,2021.1.3,99.90189631187896,
180,0,4,-4,0.85,,,,,1,0,1,0,1,33,89,49,,,,,,,,,,,,,,,,,,,,,,,577.7457015999826,None,577.7457015999826,None,577.2453650999814,None,j,0.49529450002592057,577.7457015999826,None,,,,,,,,,,,,,e,001,2021_Jul_02_1043,toilet,2021.1.3,99.90189631187896,
180,0,4,-4,1.06,,,,,1,0,1,0,1,34,90,54,,,,,,,,,,,,,,,,,,,,,,,579.2667354999576,None,579.2667354999576,None,578.7663935999153,None,f,0.6381056999089196,579.2667354999576,None,,,,,,,,,,,,,e,001,2021_Jul_02_1043,toilet,2021.1.3,99.90189631187896,
0,0,4,-4,1.0,,,,,1,0,1,0,1,35,91,10,,,,,,,,,,,,,,,,,,,,,,,580.9079272999661,None,580.9079272999661,None,580.4075065000216,None,j,0.5649892999790609,580.9079272999661,None,,,,,,,,,,,,,e,001,2021_Jul_02_1043,toilet,2021.1.3,99.90189631187896,
0,0,-4,4,1.15,,,,,1,0,1,0,1,36,92,6,,,,,,,,,,,,,,,,,,,,,,,582.4790016999468,None,582.4790016999468,None,581.9786478999304,None,j,0.4178336999611929,582.4790016999468,None,,,,,,,,,,,,,e,001,2021_Jul_02_1043,toilet,2021.1.3,99.90189631187896,
180,0,4,-4,1.15,,,,,1,0,1,0,1,37,93,55,,,,,,,,,,,,,,,,,,,,,,,583.8998715999769,None,583.8998715999769,None,583.3995385000017,None,f,0.4369460000889376,583.8998715999769,None,,,,,,,,,,,,,e,001,2021_Jul_02_1043,toilet,2021.1.3,99.90189631187896,
0,0,-4,4,1.03,,,,,1,0,1,0,1,38,94,4,,,,,,,,,,,,,,,,,,,,,,,585.3408467000118,None,585.3408467000118,None,584.8405142999254,None,j,0.404153999988921,585.3408467000118,None,,,,,,,,,,,,,e,001,2021_Jul_02_1043,toilet,2021.1.3,99.90189631187896,
0,180,4,-4,1.0,,,,,1,0,1,0,1,39,95,24,,,,,,,,,,,,,,,,,,,,,,,586.7718186000129,None,586.7718186000129,None,586.2714785999851,None,j,0.9891122999833897,586.7718186000129,None,,,,,,,,,,,,,e,001,2021_Jul_02_1043,toilet,2021.1.3,99.90189631187896,
180,0,-4,4,1.15,,,,,1,0,1,0,1,40,96,48,,,,,,,,,,,,,,,,,,,,,,,588.7732623999473,None,588.7732623999473,None,588.272832699935,None,j,0.4117365999845788,588.7732623999473,None,,,,,,,,,,,,,e,001,2021_Jul_02_1043,toilet,2021.1.3,99.90189631187896,
0,180,-4,4,1.03,,,,,1,0,1,0,1,41,97,18,,,,,,,,,,,,,,,,,,,,,,,590.2041788999923,None,590.2041788999923,None,589.7038111999864,None,f,0.40459669998381287,590.2041788999923,None,,,,,,,,,,,,,e,001,2021_Jul_02_1043,toilet,2021.1.3,99.90189631187896,
0,180,4,-4,1.06,,,,,1,0,1,0,1,42,98,26,,,,,,,,,,,,,,,,,,,,,,,591.6150917999912,None,591.6150917999912,None,591.1147564999992,None,f,0.7858748000580817,591.6150917999912,None,,,,,,,,,,,,,e,001,2021_Jul_02_1043,toilet,2021.1.3,99.90189631187896,
180,180,-4,4,1.0,,,,,1,0,1,0,1,43,99,31,,,,,,,,,,,,,,,,,,,,,,,593.4163149999222,None,593.4163149999222,None,592.9259863999905,None,j,0.6646597000071779,593.4163149999222,None,,,,,,,,,,,,,e,001,2021_Jul_02_1043,toilet,2021.1.3,99.90189631187896,
0,180,-4,4,0.97,,,,,1,0,1,0,1,44,100,16,,,,,,,,,,,,,,,,,,,,,,,595.1074603999732,None,595.1074603999732,None,594.607131299912,None,f,0.7174820998916402,595.1074603999732,None,,,,,,,,,,,,,e,001,2021_Jul_02_1043,toilet,2021.1.3,99.90189631187896,
180,0,-4,4,1.0,,,,,1,0,1,0,1,45,101,45,,,,,,,,,,,,,,,,,,,,,,,596.8486867999891,None,596.8486867999891,None,596.3483428999316,None,j,0.4323181000072509,596.8486867999891,None,,,,,,,,,,,,,e,001,2021_Jul_02_1043,toilet,2021.1.3,99.90189631187896,
0,180,-4,4,1.0,,,,,1,0,1,0,1,46,102,17,,,,,,,,,,,,,,,,,,,,,,,598.2996206999524,None,598.2996206999524,None,597.7993014999665,None,j,1.045196000020951,598.2996206999524,None,,,,,,,,,,,,,e,001,2021_Jul_02_1043,toilet,2021.1.3,99.90189631187896,
180,180,-4,4,0.94,,,,,1,0,1,0,1,47,103,29,,,,,,,,,,,,,,,,,,,,,,,600.3510140000144,None,600.3510140000144,None,599.8506732999813,None,f,0.737979199970141,600.3510140000144,None,,,,,,,,,,,,,e,001,2021_Jul_02_1043,toilet,2021.1.3,99.90189631187896,
0,0,-4,4,0.85,,,,,1,0,1,0,1,48,104,0,,,,,,,,,,,,,,,,,,,,,,,602.1022006999701,None,602.1022006999701,None,601.6018604999408,None,f,0.4907435999484733,602.1022006999701,None,,,,,,,,,,,,,e,001,2021_Jul_02_1043,toilet,2021.1.3,99.90189631187896,
180,180,4,-4,0.97,,,,,1,0,1,0,1,49,105,37,,,,,,,,,,,,,,,,,,,,,,,603.6033099999186,None,603.6033099999186,None,603.1028706999496,None,j,1.4055049000307918,603.6033099999186,None,,,,,,,,,,,,,e,001,2021_Jul_02_1043,toilet,2021.1.3,99.90189631187896,
0,180,-4,4,0.85,,,,,1,0,1,0,1,50,106,14,,,,,,,,,,,,,,,,,,,,,,,606.0248493999243,None,606.0248493999243,None,605.524513399927,None,f,0.4719755999976769,606.0248493999243,None,,,,,,,,,,,,,e,001,2021_Jul_02_1043,toilet,2021.1.3,99.90189631187896,
0,0,4,-4,0.94,,,,,1,0,1,0,1,51,107,8,,,,,,,,,,,,,,,,,,,,,,,607.5058610999258,None,607.5058610999258,None,607.0055172999855,None,j,0.39902260003145784,607.5058610999258,None,,,,,,,,,,,,,e,001,2021_Jul_02_1043,toilet,2021.1.3,99.90189631187896,
0,180,4,-4,0.97,,,,,1,0,1,0,1,52,108,23,,,,,,,,,,,,,,,,,,,,,,,608.9168128999881,None,608.9168128999881,None,608.4164739999687,None,j,0.6361755999969319,608.9168128999881,None,,,,,,,,,,,,,e,001,2021_Jul_02_1043,toilet,2021.1.3,99.90189631187896,
0,0,4,-4,1.15,,,,,1,0,1,0,1,53,109,13,,,,,,,,,,,,,,,,,,,,,,,610.5779389999807,None,610.5779389999807,None,610.077599799959,None,f,0.46288480004295707,610.5779389999807,None,,,,,,,,,,,,,e,001,2021_Jul_02_1043,toilet,2021.1.3,99.90189631187896,
180,0,4,-4,0.97,,,,,1,0,1,0,1,54,110,51,,,,,,,,,,,,,,,,,,,,,,,612.0490235999459,None,612.0490235999459,None,611.5486900999676,None,j,0.6238822999875993,612.0490235999459,None,,,,,,,,,,,,,e,001,2021_Jul_02_1043,toilet,2021.1.3,99.90189631187896,
180,180,4,-4,0.85,,,,,1,0,1,0,1,55,111,35,,,,,,,,,,,,,,,,,,,,,,,613.6800421000225,None,613.6800421000225,None,613.1796976999613,None,j,0.44885629997588694,613.6800421000225,None,,,,,,,,,,,,,e,001,2021_Jul_02_1043,toilet,2021.1.3,99.90189631187896,
,,,,,,,,,1,0,1,0,,,,,,,,,,,,,,,,,,,,,,,,,,,,,,,,,,,,,614.140350200003,None,space,34.29251469997689,614.140350200003,None,,,,,,,e,001,2021_Jul_02_1043,toilet,2021.1.3,99.90189631187896,
180,0,-4,4,0.94,,,,,2,0,2,0,0,0,0,43,,,,,,,,,,,,,,,,,648.4536001000088,None,space,2.9552888000616804,648.4536001000088,None,652.4362881999696,None,652.4362881999696,None,651.9359445999144,None,j,1.3085893999086693,652.4362881999696,None,,,,,,,,,,,,,e,001,2021_Jul_02_1043,toilet,2021.1.3,99.90189631187896,
180,180,-4,4,1.06,,,,,2,0,2,0,0,1,1,33,,,,,,,,,,,,,,,,,,,,,,,654.7578970999457,None,654.7578970999457,None,654.2575163999572,None,j,0.6990131000056863,654.7578970999457,None,,,,,,,,,,,,,e,001,2021_Jul_02_1043,toilet,2021.1.3,99.90189631187896,
180,0,4,-4,1.0,,,,,2,0,2,0,0,2,2,52,,,,,,,,,,,,,,,,,,,,,,,656.469053799985,None,656.469053799985,None,655.9686969999457,None,j,0.6357070000376552,656.469053799985,None,,,,,,,,,,,,,e,001,2021_Jul_02_1043,toilet,2021.1.3,99.90189631187896,
180,180,-4,4,1.03,,,,,2,0,2,0,0,3,3,32,,,,,,,,,,,,,,,,,,,,,,,658.1101212999783,None,658.1101212999783,None,657.6097880000016,None,j,0.43471340008545667,658.1101212999783,None,,,,,,,,,,,,,e,001,2021_Jul_02_1043,toilet,2021.1.3,99.90189631187896,
180,0,4,-4,0.94,,,,,2,0,2,0,0,4,4,50,,,,,,,,,,,,,,,,,,,,,,,659.5511133999098,None,659.5511133999098,None,659.0507597000105,None,j,0.5296552999643609,659.5511133999098,None,,,,,,,,,,,,,e,001,2021_Jul_02_1043,toilet,2021.1.3,99.90189631187896,
0,180,4,-4,1.03,,,,,2,0,2,0,0,5,5,25,,,,,,,,,,,,,,,,,,,,,,,661.0821364999283,None,661.0821364999283,None,660.5817981999135,None,f,0.40669770003296435,661.0821364999283,None,,,,,,,,,,,,,e,001,2021_Jul_02_1043,toilet,2021.1.3,99.90189631187896,
0,0,4,-4,0.94,,,,,2,0,2,0,0,6,6,8,,,,,,,,,,,,,,,,,,,,,,,662.4931924999692,None,662.4931924999692,None,662.0027581999311,None,j,0.3716085000196472,662.4931924999692,None,,,,,,,,,,,,,e,001,2021_Jul_02_1043,toilet,2021.1.3,99.90189631187896,
180,0,-4,4,1.06,,,,,2,0,2,0,0,7,7,47,,,,,,,,,,,,,,,,,,,,,,,663.8841216999572,None,663.8841216999572,None,663.3836913999403,None,j,0.38857750000897795,663.8841216999572,None,,,,,,,,,,,,,e,001,2021_Jul_02_1043,toilet,2021.1.3,99.90189631187896,
0,0,-4,4,0.97,,,,,2,0,2,0,0,8,8,2,,,,,,,,,,,,,,,,,,,,,,,665.2749777999707,None,665.2749777999707,None,664.7746411999688,None,f,0.6457774000009522,665.2749777999707,None,,,,,,,,,,,,,e,001,2021_Jul_02_1043,toilet,2021.1.3,99.90189631187896,
180,0,-4,4,1.0,,,,,2,0,2,0,0,9,9,45,,,,,,,,,,,,,,,,,,,,,,,666.9260906999698,None,666.9260906999698,None,666.4257575999945,None,j,2.1948441999265924,666.9260906999698,None,,,,,,,,,,,,,e,001,2021_Jul_02_1043,toilet,2021.1.3,99.90189631187896,
0,180,-4,4,1.0,,,,,2,0,2,0,0,10,10,17,,,,,,,,,,,,,,,,,,,,,,,670.1483743999852,None,670.1483743999852,None,669.6479378999211,None,f,0.604371799970977,670.1483743999852,None,,,,,,,,,,,,,e,001,2021_Jul_02_1043,toilet,2021.1.3,99.90189631187896,
180,0,-4,4,1.03,,,,,2,0,2,0,0,11,11,46,,,,,,,,,,,,,,,,,,,,,,,671.7693730000174,None,671.7693730000174,None,671.269068100024,None,j,2.199544499977492,671.7693730000174,None,,,,,,,,,,,,,e,001,2021_Jul_02_1043,toilet,2021.1.3,99.90189631187896,
180,0,-4,4,1.15,,,,,2,0,2,0,0,12,12,48,,,,,,,,,,,,,,,,,,,,,,,674.9815467000008,None,674.9815467000008,None,674.481210900005,None,j,0.4913469000020996,674.9815467000008,None,,,,,,,,,,,,,e,001,2021_Jul_02_1043,toilet,2021.1.3,99.90189631187896,
180,180,-4,4,0.97,,,,,2,0,2,0,0,13,13,30,,,,,,,,,,,,,,,,,,,,,,,676.4825645999517,None,676.4825645999517,None,675.9822276999475,None,f,0.8303061999613419,676.4825645999517,None,,,,,,,,,,,,,e,001,2021_Jul_02_1043,toilet,2021.1.3,99.90189631187896,
0,0,4,-4,1.0,,,,,2,0,2,0,0,14,14,10,,,,,,,,,,,,,,,,,,,,,,,678.3238872999791,None,678.3238872999791,None,677.823482299922,None,j,1.8849232000065967,678.3238872999791,None,,,,,,,,,,,,,e,001,2021_Jul_02_1043,toilet,2021.1.3,99.90189631187896,
0,0,4,-4,1.06,,,,,2,0,2,0,0,15,15,12,,,,,,,,,,,,,,,,,,,,,,,681.2157667999854,None,681.2157667999854,None,680.7154302999843,None,f,0.5451120000798255,681.2157667999854,None,,,,,,,,,,,,,e,001,2021_Jul_02_1043,toilet,2021.1.3,99.90189631187896,
180,0,4,-4,0.97,,,,,2,0,2,0,0,16,16,51,,,,,,,,,,,,,,,,,,,,,,,682.7868351999205,None,682.7868351999205,None,682.2864945000038,None,j,0.8779861000366509,682.7868351999205,None,,,,,,,,,,,,,e,001,2021_Jul_02_1043,toilet,2021.1.3,99.90189631187896,
0,0,-4,4,1.06,,,,,2,0,2,0,0,17,17,5,,,,,,,,,,,,,,,,,,,,,,,684.6781973999459,None,684.6781973999459,None,684.1777771000052,None,j,0.602718299953267,684.6781973999459,None,,,,,,,,,,,,,e,001,2021_Jul_02_1043,toilet,2021.1.3,99.90189631187896,
180,180,-4,4,1.15,,,,,2,0,2,0,0,18,18,34,,,,,,,,,,,,,,,,,,,,,,,686.2992112999782,None,686.2992112999782,None,685.7989625999471,None,j,0.5175243000267074,686.2992112999782,None,,,,,,,,,,,,,e,001,2021_Jul_02_1043,toilet,2021.1.3,99.90189631187896,
0,0,4,-4,1.15,,,,,2,0,2,0,0,19,19,13,,,,,,,,,,,,,,,,,,,,,,,687.8202416999266,None,687.8202416999266,None,687.3199298999971,None,f,0.45256340003106743,687.8202416999266,None,,,,,,,,,,,,,e,001,2021_Jul_02_1043,toilet,2021.1.3,99.90189631187896,
180,0,4,-4,1.06,,,,,2,0,2,0,0,20,20,54,,,,,,,,,,,,,,,,,,,,,,,689.2812318999786,None,689.2812318999786,None,688.780893499963,None,f,0.7837446000194177,689.2812318999786,None,,,,,,,,,,,,,e,001,2021_Jul_02_1043,toilet,2021.1.3,99.90189631187896,
180,180,-4,4,0.94,,,,,2,0,2,0,0,21,21,29,,,,,,,,,,,,,,,,,,,,,,,691.0825244999724,None,691.0825244999724,None,690.582113899989,None,f,0.438188900006935,691.0825244999724,None,,,,,,,,,,,,,e,001,2021_Jul_02_1043,toilet,2021.1.3,99.90189631187896,
180,180,-4,4,0.85,,,,,2,0,2,0,0,22,22,28,,,,,,,,,,,,,,,,,,,,,,,692.5235216999426,None,692.5235216999426,None,692.023172999965,None,f,0.42136080004274845,692.5235216999426,None,,,,,,,,,,,,,e,001,2021_Jul_02_1043,toilet,2021.1.3,99.90189631187896,
0,0,-4,4,0.85,,,,,2,0,2,0,0,23,23,0,,,,,,,,,,,,,,,,,,,,,,,693.9543916999828,None,693.9543916999828,None,693.4540946999332,None,f,0.4624021000927314,693.9543916999828,None,,,,,,,,,,,,,e,001,2021_Jul_02_1043,toilet,2021.1.3,99.90189631187896,
180,0,4,-4,1.15,,,,,2,0,2,0,0,24,24,55,,,,,,,,,,,,,,,,,,,,,,,695.4253939000191,None,695.4253939000191,None,694.9250556000043,None,f,0.3834978999802843,695.4253939000191,None,,,,,,,,,,,,,e,001,2021_Jul_02_1043,toilet,2021.1.3,99.90189631187896,
0,180,4,-4,0.94,,,,,2,0,2,0,0,25,25,22,,,,,,,,,,,,,,,,,,,,,,,696.8163303999463,None,696.8163303999463,None,696.3159931999398,None,j,0.448472399963066,696.8163303999463,None,,,,,,,,,,,,,e,001,2021_Jul_02_1043,toilet,2021.1.3,99.90189631187896,
0,180,4,-4,1.15,,,,,2,0,2,0,0,26,26,27,,,,,,,,,,,,,,,,,,,,,,,698.2673151999479,None,698.2673151999479,None,697.7669755999232,None,f,0.5014196999836713,698.2673151999479,None,,,,,,,,,,,,,e,001,2021_Jul_02_1043,toilet,2021.1.3,99.90189631187896,
0,180,-4,4,1.06,,,,,2,0,2,0,0,27,27,19,,,,,,,,,,,,,,,,,,,,,,,699.7684178999625,None,699.7684178999625,None,699.2679964000126,None,j,0.47248510003555566,699.7684178999625,None,,,,,,,,,,,,,e,001,2021_Jul_02_1043,toilet,2021.1.3,99.90189631187896,
0,180,4,-4,1.0,,,,,2,0,2,0,0,28,28,24,,,,,,,,,,,,,,,,,,,,,,,701.2593382999767,None,701.2593382999767,None,700.7590405999217,None,f,2.165394900017418,701.2593382999767,None,,,,,,,,,,,,,e,001,2021_Jul_02_1043,toilet,2021.1.3,99.90189631187896,
180,180,4,-4,1.15,,,,,2,0,2,0,0,29,29,41,,,,,,,,,,,,,,,,,,,,,,,704.4314893999835,None,704.4314893999835,None,703.9311507999664,None,f,0.4333316000411287,704.4314893999835,None,,,,,,,,,,,,,e,001,2021_Jul_02_1043,toilet,2021.1.3,99.90189631187896,
0,180,-4,4,0.97,,,,,2,0,2,0,0,30,30,16,,,,,,,,,,,,,,,,,,,,,,,705.8824667999288,None,705.8824667999288,None,705.3821186999558,None,f,1.4303675999399275,705.8824667999288,None,,,,,,,,,,,,,e,001,2021_Jul_02_1043,toilet,2021.1.3,99.90189631187896,
0,0,-4,4,1.03,,,,,2,0,2,0,0,31,31,4,,,,,,,,,,,,,,,,,,,,,,,708.324144299957,None,708.324144299957,None,707.8238231999567,None,j,0.5885749999433756,708.324144299957,None,,,,,,,,,,,,,e,001,2021_Jul_02_1043,toilet,2021.1.3,99.90189631187896,
0,180,4,-4,1.06,,,,,2,0,2,0,0,32,32,26,,,,,,,,,,,,,,,,,,,,,,,709.9152016999433,None,709.9152016999433,None,709.4148666999536,None,f,3.0456627999665216,709.9152016999433,None,,,,,,,,,,,,,e,001,2021_Jul_02_1043,toilet,2021.1.3,99.90189631187896,
0,180,-4,4,1.03,,,,,2,0,2,0,0,33,33,18,,,,,,,,,,,,,,,,,,,,,,,713.988044800004,None,713.988044800004,None,713.4877175999573,None,j,1.9326406999025494,713.988044800004,None,,,,,,,,,,,,,e,001,2021_Jul_02_1043,toilet,2021.1.3,99.90189631187896,
180,0,4,-4,1.03,,,,,2,0,2,0,0,34,34,53,,,,,,,,,,,,,,,,,,,,,,,716.9199445999693,None,716.9199445999693,None,716.4196066999575,None,j,1.176904599997215,716.9199445999693,None,,,,,,,,,,,,,e,001,2021_Jul_02_1043,toilet,2021.1.3,99.90189631187896,
0,0,4,-4,0.85,,,,,2,0,2,0,0,35,35,7,,,,,,,,,,,,,,,,,,,,,,,719.1214456999442,None,719.1214456999442,None,718.6210980999749,None,j,0.5113553999690339,719.1214456999442,None,,,,,,,,,,,,,e,001,2021_Jul_02_1043,toilet,2021.1.3,99.90189631187896,
0,0,-4,4,0.94,,,,,2,0,2,0,0,36,36,1,,,,,,,,,,,,,,,,,,,,,,,720.6424664999358,None,720.6424664999358,None,720.1421274999157,None,f,0.4783140999497846,720.6424664999358,None,,,,,,,,,,,,,e,001,2021_Jul_02_1043,toilet,2021.1.3,99.90189631187896,
180,180,4,-4,1.0,,,,,2,0,2,0,0,37,37,38,,,,,,,,,,,,,,,,,,,,,,,722.1335755999899,None,722.1335755999899,None,721.6331344000064,None,j,1.755208299960941,722.1335755999899,None,,,,,,,,,,,,,e,001,2021_Jul_02_1043,toilet,2021.1.3,99.90189631187896,
180,180,-4,4,1.0,,,,,2,0,2,0,0,38,38,31,,,,,,,,,,,,,,,,,,,,,,,724.8953461999772,None,724.8953461999772,None,724.3950105999829,None,j,0.6734480001032352,724.8953461999772,None,,,,,,,,,,,,,e,001,2021_Jul_02_1043,toilet,2021.1.3,99.90189631187896,
180,0,-4,4,0.97,,,,,2,0,2,0,0,39,39,44,,,,,,,,,,,,,,,,,,,,,,,726.5764794999268,None,726.5764794999268,None,726.0761423999211,None,j,1.040344599983655,726.5764794999268,None,,,,,,,,,,,,,e,001,2021_Jul_02_1043,toilet,2021.1.3,99.90189631187896,
0,180,4,-4,0.85,,,,,2,0,2,0,0,40,40,21,,,,,,,,,,,,,,,,,,,,,,,728.6279559999239,None,728.6279559999239,None,728.1275637999643,None,j,0.524891100008972,728.6279559999239,None,,,,,,,,,,,,,e,001,2021_Jul_02_1043,toilet,2021.1.3,99.90189631187896,
0,0,4,-4,0.97,,,,,2,0,2,0,0,41,41,9,,,,,,,,,,,,,,,,,,,,,,,730.1689590999158,None,730.1689590999158,None,729.6686575999483,None,j,1.4476704999106005,730.1689590999158,None,,,,,,,,,,,,,e,001,2021_Jul_02_1043,toilet,2021.1.3,99.90189631187896,
180,0,-4,4,0.85,,,,,2,0,2,0,0,42,42,42,,,,,,,,,,,,,,,,,,,,,,,732.6205876999302,None,732.6205876999302,None,732.1202426999807,None,f,0.5482155999634415,732.6205876999302,None,,,,,,,,,,,,,e,001,2021_Jul_02_1043,toilet,2021.1.3,99.90189631187896,
0,180,-4,4,0.94,,,,,2,0,2,0,0,43,43,15,,,,,,,,,,,,,,,,,,,,,,,734.1816382999532,None,734.1816382999532,None,733.6812944000121,None,f,2.0591356999939308,734.1816382999532,None,,,,,,,,,,,,,e,001,2021_Jul_02_1043,toilet,2021.1.3,99.90189631187896,
180,180,4,-4,1.06,,,,,2,0,2,0,0,44,44,40,,,,,,,,,,,,,,,,,,,,,,,737.2538127999287,None,737.2538127999287,None,736.7533713999437,None,f,0.6828939999686554,737.2538127999287,None,,,,,,,,,,,,,e,001,2021_Jul_02_1043,toilet,2021.1.3,99.90189631187896,
180,180,4,-4,0.94,,,,,2,0,2,0,0,45,45,36,,,,,,,,,,,,,,,,,,,,,,,738.9448574999114,None,738.9448574999114,None,738.4445197000168,None,j,0.6398537999484688,738.9448574999114,None,,,,,,,,,,,,,e,001,2021_Jul_02_1043,toilet,2021.1.3,99.90189631187896,
0,0,-4,4,1.0,,,,,2,0,2,0,0,46,46,3,,,,,,,,,,,,,,,,,,,,,,,740.5859672999941,None,740.5859672999941,None,740.0856501000235,None,j,0.64669900003355,740.5859672999941,None,,,,,,,,,,,,,e,001,2021_Jul_02_1043,toilet,2021.1.3,99.90189631187896,
0,180,4,-4,0.97,,,,,2,0,2,0,0,47,47,23,,,,,,,,,,,,,,,,,,,,,,,742.237090599956,None,742.237090599956,None,741.7367511999328,None,j,3.635667599970475,742.237090599956,None,,,,,,,,,,,,,e,001,2021_Jul_02_1043,toilet,2021.1.3,99.90189631187896,
0,180,-4,4,0.85,,,,,2,0,2,0,0,48,48,14,,,,,,,,,,,,,,,,,,,,,,,746.8802353999345,None,746.8802353999345,None,746.3798936000094,None,f,0.5925242999801412,746.8802353999345,None,,,,,,,,,,,,,e,001,2021_Jul_02_1043,toilet,2021.1.3,99.90189631187896,
180,180,4,-4,0.97,,,,,2,0,2,0,0,49,49,37,,,,,,,,,,,,,,,,,,,,,,,748.4913380999351,None,748.4913380999351,None,747.990985399927,None,j,0.5177305999677628,748.4913380999351,None,,,,,,,,,,,,,e,001,2021_Jul_02_1043,toilet,2021.1.3,99.90189631187896,
0,180,-4,4,1.15,,,,,2,0,2,0,0,50,50,20,,,,,,,,,,,,,,,,,,,,,,,750.0323695999105,None,750.0323695999105,None,749.5320283999899,None,j,0.432482699980028,750.0323695999105,None,,,,,,,,,,,,,e,001,2021_Jul_02_1043,toilet,2021.1.3,99.90189631187896,
0,0,4,-4,1.03,,,,,2,0,2,0,0,51,51,11,,,,,,,,,,,,,,,,,,,,,,,751.493441700004,None,751.493441700004,None,750.9931018999778,None,f,1.0191982999676839,751.493441700004,None,,,,,,,,,,,,,e,001,2021_Jul_02_1043,toilet,2021.1.3,99.90189631187896,
180,180,4,-4,1.03,,,,,2,0,2,0,0,52,52,39,,,,,,,,,,,,,,,,,,,,,,,753.5147272999166,None,753.5147272999166,None,753.0143964999588,None,f,0.7259231000207365,753.5147272999166,None,,,,,,,,,,,,,e,001,2021_Jul_02_1043,toilet,2021.1.3,99.90189631187896,
180,180,4,-4,0.85,,,,,2,0,2,0,0,53,53,35,,,,,,,,,,,,,,,,,,,,,,,755.2458964999532,None,755.2458964999532,None,754.7455560999224,None,j,0.4669229999417439,755.2458964999532,None,,,,,,,,,,,,,e,001,2021_Jul_02_1043,toilet,2021.1.3,99.90189631187896,
180,0,4,-4,0.85,,,,,2,0,2,0,0,54,54,49,,,,,,,,,,,,,,,,,,,,,,,756.7369101999793,None,756.7369101999793,None,756.2365697999485,None,j,0.33577290002722293,756.7369101999793,None,,,,,,,,,,,,,e,001,2021_Jul_02_1043,toilet,2021.1.3,99.90189631187896,
0,0,-4,4,1.15,,,,,2,0,2,0,0,55,55,6,,,,,,,,,,,,,,,,,,,,,,,758.0779054999584,None,758.0779054999584,None,757.5774806999834,None,j,0.8347468000138178,758.0779054999584,None,,,,,,,,,,,,,e,001,2021_Jul_02_1043,toilet,2021.1.3,99.90189631187896,
0,180,4,-4,0.97,,,,,2,0,2,0,1,0,56,23,,,,,,,,,,,,,,,,,,,,,,,759.9191013999516,None,759.9191013999516,None,759.4188096999424,None,j,0.5137053000507876,759.9191013999516,None,,,,,,,,,,,,,e,001,2021_Jul_02_1043,toilet,2021.1.3,99.90189631187896,
180,180,-4,4,1.03,,,,,2,0,2,0,1,1,57,32,,,,,,,,,,,,,,,,,,,,,,,761.4400880999165,None,761.4400880999165,None,760.9397483000066,None,j,0.5445758999558166,761.4400880999165,None,,,,,,,,,,,,,e,001,2021_Jul_02_1043,toilet,2021.1.3,99.90189631187896,
0,180,-4,4,0.85,,,,,2,0,2,0,1,2,58,14,,,,,,,,,,,,,,,,,,,,,,,762.991139199934,None,762.991139199934,None,762.490806799964,None,f,0.5456603999482468,762.991139199934,None,,,,,,,,,,,,,e,001,2021_Jul_02_1043,toilet,2021.1.3,99.90189631187896,
0,0,-4,4,0.85,,,,,2,0,2,0,1,3,59,0,,,,,,,,,,,,,,,,,,,,,,,764.5521956000011,None,764.5521956000011,None,764.051854899968,None,f,0.3926746000070125,764.5521956000011,None,,,,,,,,,,,,,e,001,2021_Jul_02_1043,toilet,2021.1.3,99.90189631187896,
180,180,-4,4,1.0,,,,,2,0,2,0,1,4,60,31,,,,,,,,,,,,,,,,,,,,,,,765.9631909999298,None,765.9631909999298,None,765.4628531999188,None,j,0.7255957999732345,765.9631909999298,None,,,,,,,,,,,,,e,001,2021_Jul_02_1043,toilet,2021.1.3,99.90189631187896,
0,0,-4,4,1.03,,,,,2,0,2,0,1,5,61,4,,,,,,,,,,,,,,,,,,,,,,,767.7043286999688,None,767.7043286999688,None,767.2040092999814,None,j,0.47243470000103116,767.7043286999688,None,,,,,,,,,,,,,e,001,2021_Jul_02_1043,toilet,2021.1.3,99.90189631187896,
180,180,-4,4,1.06,,,,,2,0,2,0,1,6,62,33,,,,,,,,,,,,,,,,,,,,,,,769.1853345999261,None,769.1853345999261,None,768.6850017999532,None,j,0.5432635999750346,769.1853345999261,None,,,,,,,,,,,,,e,001,2021_Jul_02_1043,toilet,2021.1.3,99.90189631187896,
0,180,4,-4,0.94,,,,,2,0,2,0,1,7,63,22,,,,,,,,,,,,,,,,,,,,,,,770.7363856999436,None,770.7363856999436,None,770.2360530999722,None,j,0.3844786999979988,770.7363856999436,None,,,,,,,,,,,,,e,001,2021_Jul_02_1043,toilet,2021.1.3,99.90189631187896,
180,0,-4,4,0.94,,,,,2,0,2,0,1,8,64,43,,,,,,,,,,,,,,,,,,,,,,,772.1473436999368,None,772.1473436999368,None,771.6469995999942,None,f,0.3654579999856651,772.1473436999368,None,,,,,,,,,,,,,e,001,2021_Jul_02_1043,toilet,2021.1.3,99.90189631187896,
180,0,-4,4,0.97,,,,,2,0,2,0,1,9,65,44,,,,,,,,,,,,,,,,,,,,,,,773.5282744999276,None,773.5282744999276,None,773.028027699911,None,f,0.6645458999555558,773.5282744999276,None,,,,,,,,,,,,,e,001,2021_Jul_02_1043,toilet,2021.1.3,99.90189631187896,
180,180,-4,4,0.97,,,,,2,0,2,0,1,10,66,30,,,,,,,,,,,,,,,,,,,,,,,775.2094103000127,None,775.2094103000127,None,774.7090810999507,None,f,0.5352633000584319,775.2094103000127,None,,,,,,,,,,,,,e,001,2021_Jul_02_1043,toilet,2021.1.3,99.90189631187896,
180,180,4,-4,1.15,,,,,2,0,2,0,1,11,67,41,,,,,,,,,,,,,,,,,,,,,,,776.7504602000117,None,776.7504602000117,None,776.2501174999634,None,f,0.33817260002251714,776.7504602000117,None,,,,,,,,,,,,,e,001,2021_Jul_02_1043,toilet,2021.1.3,99.90189631187896,
0,180,4,-4,1.03,,,,,2,0,2,0,1,12,68,25,,,,,,,,,,,,,,,,,,,,,,,778.091365500004,None,778.091365500004,None,777.5910328999162,None,f,0.533460900071077,778.091365500004,None,,,,,,,,,,,,,e,001,2021_Jul_02_1043,toilet,2021.1.3,99.90189631187896,
0,180,-4,4,1.03,,,,,2,0,2,0,1,13,69,18,,,,,,,,,,,,,,,,,,,,,,,779.6524235999677,None,779.6524235999677,None,779.1520855999552,None,j,0.31620070000644773,779.6524235999677,None,,,,,,,,,,,,,e,001,2021_Jul_02_1043,toilet,2021.1.3,99.90189631187896,
180,180,4,-4,0.97,,,,,2,0,2,0,1,14,70,37,,,,,,,,,,,,,,,,,,,,,,,780.9734052999411,None,780.9734052999411,None,780.4730760999955,None,j,0.3713780000107363,780.9734052999411,None,,,,,,,,,,,,,e,001,2021_Jul_02_1043,toilet,2021.1.3,99.90189631187896,
0,0,-4,4,1.15,,,,,2,0,2,0,1,15,71,6,,,,,,,,,,,,,,,,,,,,,,,782.354250799981,None,782.354250799981,None,781.8540083999978,None,j,0.4143647000892088,782.354250799981,None,,,,,,,,,,,,,e,001,2021_Jul_02_1043,toilet,2021.1.3,99.90189631187896,
180,0,4,-4,1.03,,,,,2,0,2,0,1,16,72,53,,,,,,,,,,,,,,,,,,,,,,,783.7752099999925,None,783.7752099999925,None,783.2748710999731,None,f,0.6254121999954805,783.7752099999925,None,,,,,,,,,,,,,e,001,2021_Jul_02_1043,toilet,2021.1.3,99.90189631187896,
180,180,4,-4,0.85,,,,,2,0,2,0,1,17,73,35,,,,,,,,,,,,,,,,,,,,,,,785.4063227999723,None,785.4063227999723,None,784.9059805999277,None,j,1.2345775999128819,785.4063227999723,None,,,,,,,,,,,,,e,001,2021_Jul_02_1043,toilet,2021.1.3,99.90189631187896,
0,180,-4,4,1.06,,,,,2,0,2,0,1,18,74,19,,,,,,,,,,,,,,,,,,,,,,,787.6578405000037,None,787.6578405000037,None,787.157501699985,None,j,0.40688550006598234,787.6578405000037,None,,,,,,,,,,,,,e,001,2021_Jul_02_1043,toilet,2021.1.3,99.90189631187896,
0,0,4,-4,1.15,,,,,2,0,2,0,1,19,75,13,,,,,,,,,,,,,,,,,,,,,,,789.0788080999628,None,789.0788080999628,None,788.5785565999104,None,f,0.37781039997935295,789.0788080999628,None,,,,,,,,,,,,,e,001,2021_Jul_02_1043,toilet,2021.1.3,99.90189631187896,
180,0,4,-4,1.15,,,,,2,0,2,0,1,20,76,55,,,,,,,,,,,,,,,,,,,,,,,790.4597409999697,None,790.4597409999697,None,789.9594043999678,None,j,0.29299049999099225,790.4597409999697,None,,,,,,,,,,,,,e,001,2021_Jul_02_1043,toilet,2021.1.3,99.90189631187896,
180,0,-4,4,1.0,,,,,2,0,2,0,1,21,77,45,,,,,,,,,,,,,,,,,,,,,,,791.7605967000127,None,791.7605967000127,None,791.2602814999409,None,j,0.4480290000792593,791.7605967000127,None,,,,,,,,,,,,,e,001,2021_Jul_02_1043,toilet,2021.1.3,99.90189631187896,
0,0,4,-4,1.0,,,,,2,0,2,0,1,22,78,10,,,,,,,,,,,,,,,,,,,,,,,793.2116012999322,None,793.2116012999322,None,792.7112650999334,None,j,0.48507799999788404,793.2116012999322,None,,,,,,,,,,,,,e,001,2021_Jul_02_1043,toilet,2021.1.3,99.90189631187896,
0,180,4,-4,1.15,,,,,2,0,2,0,1,23,79,27,,,,,,,,,,,,,,,,,,,,,,,794.7126405999297,None,794.7126405999297,None,794.2122817999916,None,f,0.34410549991298467,794.7126405999297,None,,,,,,,,,,,,,e,001,2021_Jul_02_1043,toilet,2021.1.3,99.90189631187896,
180,180,-4,4,0.94,,,,,2,0,2,0,1,24,80,29,,,,,,,,,,,,,,,,,,,,,,,796.0636256999569,None,796.0636256999569,None,795.5632798000006,None,f,0.48114489996805787,796.0636256999569,None,,,,,,,,,,,,,e,001,2021_Jul_02_1043,toilet,2021.1.3,99.90189631187896,
0,0,-4,4,1.06,,,,,2,0,2,0,1,25,81,5,,,,,,,,,,,,,,,,,,,,,,,797.5545406999299,None,797.5545406999299,None,797.0542024999158,None,j,0.6380749000236392,797.5545406999299,None,,,,,,,,,,,,,e,001,2021_Jul_02_1043,toilet,2021.1.3,99.90189631187896,
180,0,4,-4,1.0,,,,,2,0,2,0,1,26,82,52,,,,,,,,,,,,,,,,,,,,,,,799.1956584999571,None,799.1956584999571,None,798.6953476999188,None,j,0.3731078999117017,799.1956584999571,None,,,,,,,,,,,,,e,001,2021_Jul_02_1043,toilet,2021.1.3,99.90189631187896,
0,180,-4,4,1.15,,,,,2,0,2,0,1,27,83,20,,,,,,,,,,,,,,,,,,,,,,,800.5966019999469,None,800.5966019999469,None,800.0962663999526,None,j,0.44410490000154823,800.5966019999469,None,,,,,,,,,,,,,e,001,2021_Jul_02_1043,toilet,2021.1.3,99.90189631187896,
0,180,4,-4,0.85,,,,,2,0,2,0,1,28,84,21,,,,,,,,,,,,,,,,,,,,,,,802.057618199964,None,802.057618199964,None,801.5572522999719,None,j,0.3590009000618011,802.057618199964,None,,,,,,,,,,,,,e,001,2021_Jul_02_1043,toilet,2021.1.3,99.90189631187896,
180,180,4,-4,1.06,,,,,2,0,2,0,1,29,85,40,,,,,,,,,,,,,,,,,,,,,,,803.4186183999991,None,803.4186183999991,None,802.9182673000032,None,f,0.4060942999785766,803.4186183999991,None,,,,,,,,,,,,,e,001,2021_Jul_02_1043,toilet,2021.1.3,99.90189631187896,
180,0,-4,4,1.03,,,,,2,0,2,0,1,30,86,46,,,,,,,,,,,,,,,,,,,,,,,804.8394816999789,None,804.8394816999789,None,804.3391387999291,None,j,0.47323170001618564,804.8394816999789,None,,,,,,,,,,,,,e,001,2021_Jul_02_1043,toilet,2021.1.3,99.90189631187896,
0,0,4,-4,1.06,,,,,2,0,2,0,1,31,87,12,,,,,,,,,,,,,,,,,,,,,,,806.320484799915,None,806.320484799915,None,805.8201367999427,None,f,0.41617320000659674,806.320484799915,None,,,,,,,,,,,,,e,001,2021_Jul_02_1043,toilet,2021.1.3,99.90189631187896,
180,180,4,-4,1.03,,,,,2,0,2,0,1,32,88,39,,,,,,,,,,,,,,,,,,,,,,,807.7414410000201,None,807.7414410000201,None,807.24110069999,None,f,0.3711732999654487,807.7414410000201,None,,,,,,,,,,,,,e,001,2021_Jul_02_1043,toilet,2021.1.3,99.90189631187896,
180,0,4,-4,0.94,,,,,2,0,2,0,1,33,89,50,,,,,,,,,,,,,,,,,,,,,,,809.112370399991,None,809.112370399991,None,808.612034699996,None,j,0.4084411000367254,809.112370399991,None,,,,,,,,,,,,,e,001,2021_Jul_02_1043,toilet,2021.1.3,99.90189631187896,
180,180,-4,4,1.15,,,,,2,0,2,0,1,34,90,34,,,,,,,,,,,,,,,,,,,,,,,810.5334111999255,None,810.5334111999255,None,810.0330921999412,None,j,0.42734380008187145,810.5334111999255,None,,,,,,,,,,,,,e,001,2021_Jul_02_1043,toilet,2021.1.3,99.90189631187896,
180,0,-4,4,1.15,,,,,2,0,2,0,1,35,91,48,,,,,,,,,,,,,,,,,,,,,,,811.9743128999835,None,811.9743128999835,None,811.473967299913,None,j,0.4263210000935942,811.9743128999835,None,,,,,,,,,,,,,e,001,2021_Jul_02_1043,toilet,2021.1.3,99.90189631187896,
180,0,4,-4,0.85,,,,,2,0,2,0,1,36,92,49,,,,,,,,,,,,,,,,,,,,,,,813.4052771999268,None,813.4052771999268,None,812.9049532000208,None,j,0.49933679995592684,813.4052771999268,None,,,,,,,,,,,,,e,001,2021_Jul_02_1043,toilet,2021.1.3,99.90189631187896,
0,180,4,-4,1.0,,,,,2,0,2,0,1,37,93,24,,,,,,,,,,,,,,,,,,,,,,,814.9062921999721,None,814.9062921999721,None,814.405953599955,None,j,1.9584108999697492,814.9062921999721,None,,,,,,,,,,,,,e,001,2021_Jul_02_1043,toilet,2021.1.3,99.90189631187896,
0,180,-4,4,0.97,,,,,2,0,2,0,1,38,94,16,,,,,,,,,,,,,,,,,,,,,,,817.8783473999938,None,817.8783473999938,None,817.3780669999542,None,f,0.4263472999446094,817.8783473999938,None,,,,,,,,,,,,,e,001,2021_Jul_02_1043,toilet,2021.1.3,99.90189631187896,
180,0,4,-4,0.97,,,,,2,0,2,0,1,39,95,51,,,,,,,,,,,,,,,,,,,,,,,819.3192830999615,None,819.3192830999615,None,818.8189618999604,None,j,0.4253083999501541,819.3192830999615,None,,,,,,,,,,,,,e,001,2021_Jul_02_1043,toilet,2021.1.3,99.90189631187896,
0,180,4,-4,1.06,,,,,2,0,2,0,1,40,96,26,,,,,,,,,,,,,,,,,,,,,,,820.7502525999444,None,820.7502525999444,None,820.2499162999447,None,f,0.5783367999829352,820.7502525999444,None,,,,,,,,,,,,,e,001,2021_Jul_02_1043,toilet,2021.1.3,99.90189631187896,
0,180,-4,4,0.94,,,,,2,0,2,0,1,41,97,15,,,,,,,,,,,,,,,,,,,,,,,822.3313206000021,None,822.3313206000021,None,821.8309857000131,None,j,0.38926920003723353,822.3313206000021,None,,,,,,,,,,,,,e,001,2021_Jul_02_1043,toilet,2021.1.3,99.90189631187896,
0,0,4,-4,0.85,,,,,2,0,2,0,1,42,98,7,,,,,,,,,,,,,,,,,,,,,,,823.7322695999173,None,823.7322695999173,None,823.2319305000128,None,j,0.4283782000420615,823.7322695999173,None,,,,,,,,,,,,,e,001,2021_Jul_02_1043,toilet,2021.1.3,99.90189631187896,
0,0,-4,4,0.97,,,,,2,0,2,0,1,43,99,2,,,,,,,,,,,,,,,,,,,,,,,825.1732417999301,None,825.1732417999301,None,824.6729971999303,None,f,0.49154099996667355,825.1732417999301,None,,,,,,,,,,,,,e,001,2021_Jul_02_1043,toilet,2021.1.3,99.90189631187896,
180,180,4,-4,1.0,,,,,2,0,2,0,1,44,100,38,,,,,,,,,,,,,,,,,,,,,,,826.6842693999643,None,826.6842693999643,None,826.1839495999739,None,f,0.43641969992313534,826.6842693999643,None,,,,,,,,,,,,,e,001,2021_Jul_02_1043,toilet,2021.1.3,99.90189631187896,
0,0,4,-4,0.94,,,,,2,0,2,0,1,45,101,8,,,,,,,,,,,,,,,,,,,,,,,828.1252445999999,None,828.1252445999999,None,827.6249078999972,None,j,0.4673533000750467,828.1252445999999,None,,,,,,,,,,,,,e,001,2021_Jul_02_1043,toilet,2021.1.3,99.90189631187896,
180,0,-4,4,0.85,,,,,2,0,2,0,1,46,102,42,,,,,,,,,,,,,,,,,,,,,,,829.5962404999882,None,829.5962404999882,None,829.0959246999118,None,f,0.37235020007938147,829.5962404999882,None,,,,,,,,,,,,,e,001,2021_Jul_02_1043,toilet,2021.1.3,99.90189631187896,
0,180,-4,4,1.0,,,,,2,0,2,0,1,47,103,17,,,,,,,,,,,,,,,,,,,,,,,830.9771748000057,None,830.9771748000057,None,830.4768399000168,None,j,0.33561299997381866,830.9771748000057,None,,,,,,,,,,,,,e,001,2021_Jul_02_1043,toilet,2021.1.3,99.90189631187896,
180,0,4,-4,1.06,,,,,2,0,2,0,1,48,104,54,,,,,,,,,,,,,,,,,,,,,,,832.3281869000057,None,832.3281869000057,None,831.8277880999958,None,f,0.712561999913305,832.3281869000057,None,,,,,,,,,,,,,e,001,2021_Jul_02_1043,toilet,2021.1.3,99.90189631187896,
0,0,4,-4,0.97,,,,,2,0,2,0,1,49,105,9,,,,,,,,,,,,,,,,,,,,,,,834.0592639999231,None,834.0592639999231,None,833.5589244000148,None,j,0.3734190999530256,834.0592639999231,None,,,,,,,,,,,,,e,001,2021_Jul_02_1043,toilet,2021.1.3,99.90189631187896,
0,0,-4,4,0.94,,,,,2,0,2,0,1,50,106,1,,,,,,,,,,,,,,,,,,,,,,,835.4401965999277,None,835.4401965999277,None,834.9398592999205,None,f,0.38439369993284345,835.4401965999277,None,,,,,,,,,,,,,e,001,2021_Jul_02_1043,toilet,2021.1.3,99.90189631187896,
0,0,-4,4,1.0,,,,,2,0,2,0,1,51,107,3,,,,,,,,,,,,,,,,,,,,,,,836.8311364999972,None,836.8311364999972,None,836.3308011000045,None,j,0.2895268000429496,836.8311364999972,None,,,,,,,,,,,,,e,001,2021_Jul_02_1043,toilet,2021.1.3,99.90189631187896,
180,180,-4,4,0.85,,,,,2,0,2,0,1,52,108,28,,,,,,,,,,,,,,,,,,,,,,,838.1320207999088,None,838.1320207999088,None,837.6316806999967,None,f,0.39656260004267097,838.1320207999088,None,,,,,,,,,,,,,e,001,2021_Jul_02_1043,toilet,2021.1.3,99.90189631187896,
180,0,-4,4,1.06,,,,,2,0,2,0,1,53,109,47,,,,,,,,,,,,,,,,,,,,,,,839.5330040999688,None,839.5330040999688,None,839.032699399977,None,j,0.8676459999987856,839.5330040999688,None,,,,,,,,,,,,,e,001,2021_Jul_02_1043,toilet,2021.1.3,99.90189631187896,
180,180,4,-4,0.94,,,,,2,0,2,0,1,54,110,36,,,,,,,,,,,,,,,,,,,,,,,841.41423939995,None,841.41423939995,None,840.9139218999771,None,j,0.6183517000172287,841.41423939995,None,,,,,,,,,,,,,e,001,2021_Jul_02_1043,toilet,2021.1.3,99.90189631187896,
0,0,4,-4,1.03,,,,,2,0,2,0,1,55,111,11,,,,,,,,,,,,,,,,,,,,,,,843.0353432999691,None,843.0353432999691,None,842.5350014999276,None,j,0.4854275999823585,843.0353432999691,None,,,,,,,,,,,,,e,001,2021_Jul_02_1043,toilet,2021.1.3,99.90189631187896,
,,,,,,,,,2,0,2,0,,,,,,,,,,,,,,,,,,,,,,,,,,,,,,,,,,,,,843.5557332999306,None,space,3.2129926999332383,843.5557332999306,None,,,,,,,e,001,2021_Jul_02_1043,toilet,2021.1.3,99.90189631187896,
180,180,-4,4,0.85,,,,,3,0,3,0,0,0,0,28,,,,,,,,,,,,,,,,,846.7879396999488,None,space,3.8687942000105977,846.7879396999488,None,851.681196999969,None,851.681196999969,None,851.1808515000157,None,f,0.751471099909395,851.681196999969,None,,,,,,,,,,,,,e,001,2021_Jul_02_1043,toilet,2021.1.3,99.90189631187896,
180,0,4,-4,1.15,,,,,3,0,3,0,0,1,1,55,,,,,,,,,,,,,,,,,,,,,,,853.442387899966,None,853.442387899966,None,852.9420488999458,None,f,0.31816949998028576,853.442387899966,None,,,,,,,,,,,,,e,001,2021_Jul_02_1043,toilet,2021.1.3,99.90189631187896,
0,0,4,-4,0.97,,,,,3,0,3,0,0,2,2,9,,,,,,,,,,,,,,,,,,,,,,,854.7633789000101,None,854.7633789000101,None,854.2630326999351,None,j,0.48532159999012947,854.7633789000101,None,,,,,,,,,,,,,e,001,2021_Jul_02_1043,toilet,2021.1.3,99.90189631187896,
0,0,4,-4,0.85,,,,,3,0,3,0,0,3,3,7,,,,,,,,,,,,,,,,,,,,,,,856.2642931999872,None,856.2642931999872,None,855.7639691999648,None,j,0.44025630003307015,856.2642931999872,None,,,,,,,,,,,,,e,001,2021_Jul_02_1043,toilet,2021.1.3,99.90189631187896,
180,0,-4,4,1.06,,,,,3,0,3,0,0,4,4,47,,,,,,,,,,,,,,,,,,,,,,,857.7052778999787,None,857.7052778999787,None,857.2049363999395,None,j,0.4554409000556916,857.7052778999787,None,,,,,,,,,,,,,e,001,2021_Jul_02_1043,toilet,2021.1.3,99.90189631187896,
0,0,-4,4,0.97,,,,,3,0,3,0,0,5,5,2,,,,,,,,,,,,,,,,,,,,,,,859.1862737999763,None,859.1862737999763,None,858.6859367999714,None,f,0.7344451999524608,859.1862737999763,None,,,,,,,,,,,,,e,001,2021_Jul_02_1043,toilet,2021.1.3,99.90189631187896,
180,0,-4,4,0.85,,,,,3,0,3,0,0,6,6,42,,,,,,,,,,,,,,,,,,,,,,,860.9474708000198,None,860.9474708000198,None,860.4471314999973,None,f,0.4452253000345081,860.9474708000198,None,,,,,,,,,,,,,e,001,2021_Jul_02_1043,toilet,2021.1.3,99.90189631187896,
180,180,4,-4,1.03,,,,,3,0,3,0,0,7,7,39,,,,,,,,,,,,,,,,,,,,,,,862.4184653999982,None,862.4184653999982,None,861.9182187999832,None,f,1.2141343000112101,862.4184653999982,None,,,,,,,,,,,,,e,001,2021_Jul_02_1043,toilet,2021.1.3,99.90189631187896,
180,180,4,-4,0.94,,,,,3,0,3,0,0,8,8,36,,,,,,,,,,,,,,,,,,,,,,,864.6399686000077,None,864.6399686000077,None,864.1396318000043,None,j,0.5445786999771371,864.6399686000077,None,,,,,,,,,,,,,e,001,2021_Jul_02_1043,toilet,2021.1.3,99.90189631187896,
0,180,-4,4,1.06,,,,,3,0,3,0,0,9,9,19,,,,,,,,,,,,,,,,,,,,,,,866.1910182000138,None,866.1910182000138,None,865.6906796999974,None,j,0.3856736000161618,866.1910182000138,None,,,,,,,,,,,,,e,001,2021_Jul_02_1043,toilet,2021.1.3,99.90189631187896,
180,0,-4,4,1.0,,,,,3,0,3,0,0,10,10,45,,,,,,,,,,,,,,,,,,,,,,,867.601974499994,None,867.601974499994,None,867.1016361999791,None,j,0.4147416000487283,867.601974499994,None,,,,,,,,,,,,,e,001,2021_Jul_02_1043,toilet,2021.1.3,99.90189631187896,
0,180,4,-4,0.94,,,,,3,0,3,0,0,11,11,22,,,,,,,,,,,,,,,,,,,,,,,869.0430400000187,None,869.0430400000187,None,868.5426133999135,None,j,0.4136657000053674,869.0430400000187,None,,,,,,,,,,,,,e,001,2021_Jul_02_1043,toilet,2021.1.3,99.90189631187896,
180,0,4,-4,1.0,,,,,3,0,3,0,0,12,12,52,,,,,,,,,,,,,,,,,,,,,,,870.4739553999389,None,870.4739553999389,None,869.9735888999421,None,f,0.5186244000215083,870.4739553999389,None,,,,,,,,,,,,,e,001,2021_Jul_02_1043,toilet,2021.1.3,99.90189631187896,
0,180,-4,4,1.0,,,,,3,0,3,0,0,13,13,17,,,,,,,,,,,,,,,,,,,,,,,871.9949497999623,None,871.9949497999623,None,871.4946114999475,None,f,0.5975460999179631,871.9949497999623,None,,,,,,,,,,,,,e,001,2021_Jul_02_1043,toilet,2021.1.3,99.90189631187896,
180,0,4,-4,1.03,,,,,3,0,3,0,0,14,14,53,,,,,,,,,,,,,,,,,,,,,,,873.5960314999102,None,873.5960314999102,None,873.0956928000087,None,j,0.4846802999963984,873.5960314999102,None,,,,,,,,,,,,,e,001,2021_Jul_02_1043,toilet,2021.1.3,99.90189631187896,
0,0,-4,4,1.03,,,,,3,0,3,0,0,15,15,4,,,,,,,,,,,,,,,,,,,,,,,875.1070556999184,None,875.1070556999184,None,874.606714900001,None,j,0.4615926999831572,875.1070556999184,None,,,,,,,,,,,,,e,001,2021_Jul_02_1043,toilet,2021.1.3,99.90189631187896,
180,180,-4,4,1.0,,,,,3,0,3,0,0,16,16,31,,,,,,,,,,,,,,,,,,,,,,,876.5781490999507,None,876.5781490999507,None,876.0777150000213,None,f,0.3826338000362739,876.5781490999507,None,,,,,,,,,,,,,e,001,2021_Jul_02_1043,toilet,2021.1.3,99.90189631187896,
180,180,-4,4,1.15,,,,,3,0,3,0,0,17,17,34,,,,,,,,,,,,,,,,,,,,,,,877.9790004999377,None,877.9790004999377,None,877.4787627999904,None,j,0.34148479998111725,877.9790004999377,None,,,,,,,,,,,,,e,001,2021_Jul_02_1043,toilet,2021.1.3,99.90189631187896,
0,180,4,-4,1.15,,,,,3,0,3,0,0,18,18,27,,,,,,,,,,,,,,,,,,,,,,,879.3199079999467,None,879.3199079999467,None,878.8195672999136,None,f,0.36063259991351515,879.3199079999467,None,,,,,,,,,,,,,e,001,2021_Jul_02_1043,toilet,2021.1.3,99.90189631187896,
180,180,4,-4,1.0,,,,,3,0,3,0,0,19,19,38,,,,,,,,,,,,,,,,,,,,,,,880.6808317999821,None,880.6808317999821,None,880.1804900999414,None,f,0.4878707000752911,880.6808317999821,None,,,,,,,,,,,,,e,001,2021_Jul_02_1043,toilet,2021.1.3,99.90189631187896,
180,0,4,-4,1.06,,,,,3,0,3,0,0,20,20,54,,,,,,,,,,,,,,,,,,,,,,,882.1818437000038,None,882.1818437000038,None,881.6815039999783,None,f,0.7948491000570357,882.1818437000038,None,,,,,,,,,,,,,e,001,2021_Jul_02_1043,toilet,2021.1.3,99.90189631187896,
180,0,4,-4,0.94,,,,,3,0,3,0,0,21,21,50,,,,,,,,,,,,,,,,,,,,,,,883.9931758999592,None,883.9931758999592,None,883.492749899975,None,j,0.39150409994181246,883.9931758999592,None,,,,,,,,,,,,,e,001,2021_Jul_02_1043,toilet,2021.1.3,99.90189631187896,
0,0,-4,4,1.15,,,,,3,0,3,0,0,22,22,6,,,,,,,,,,,,,,,,,,,,,,,885.3940209000139,None,885.3940209000139,None,884.8937799999258,None,j,0.4944946999894455,885.3940209000139,None,,,,,,,,,,,,,e,001,2021_Jul_02_1043,toilet,2021.1.3,99.90189631187896,
0,0,-4,4,1.0,,,,,3,0,3,0,0,23,23,3,,,,,,,,,,,,,,,,,,,,,,,886.89503159991,None,886.89503159991,None,886.3946975999279,None,f,0.5454940999625251,886.89503159991,None,,,,,,,,,,,,,e,001,2021_Jul_02_1043,toilet,2021.1.3,99.90189631187896,
180,180,-4,4,1.03,,,,,3,0,3,0,0,24,24,32,,,,,,,,,,,,,,,,,,,,,,,888.4460905999877,None,888.4460905999877,None,887.9457503999583,None,j,0.4825388001045212,888.4460905999877,None,,,,,,,,,,,,,e,001,2021_Jul_02_1043,toilet,2021.1.3,99.90189631187896,
0,0,4,-4,1.0,,,,,3,0,3,0,0,25,25,10,,,,,,,,,,,,,,,,,,,,,,,889.947105399915,None,889.947105399915,None,889.4467676000204,None,j,0.9015380999771878,889.947105399915,None,,,,,,,,,,,,,e,001,2021_Jul_02_1043,toilet,2021.1.3,99.90189631187896,
180,180,-4,4,1.06,,,,,3,0,3,0,0,26,26,33,,,,,,,,,,,,,,,,,,,,,,,891.858468499966,None,891.858468499966,None,891.3580716999713,None,j,0.510181299992837,891.858468499966,None,,,,,,,,,,,,,e,001,2021_Jul_02_1043,toilet,2021.1.3,99.90189631187896,
180,0,4,-4,0.97,,,,,3,0,3,0,0,27,27,51,,,,,,,,,,,,,,,,,,,,,,,893.3794264999451,None,893.3794264999451,None,892.8790981000056,None,f,0.6210636999458075,893.3794264999451,None,,,,,,,,,,,,,e,001,2021_Jul_02_1043,toilet,2021.1.3,99.90189631187896,
180,0,-4,4,0.97,,,,,3,0,3,0,0,28,28,44,,,,,,,,,,,,,,,,,,,,,,,895.0005251999246,None,895.0005251999246,None,894.500212199986,None,j,1.4320880000013858,895.0005251999246,None,,,,,,,,,,,,,e,001,2021_Jul_02_1043,toilet,2021.1.3,99.90189631187896,
0,180,-4,4,0.85,,,,,3,0,3,0,0,29,29,14,,,,,,,,,,,,,,,,,,,,,,,897.4521858999506,None,897.4521858999506,None,896.9518435000209,None,f,0.9804071999387816,897.4521858999506,None,,,,,,,,,,,,,e,001,2021_Jul_02_1043,toilet,2021.1.3,99.90189631187896,
0,180,4,-4,0.97,,,,,3,0,3,0,0,30,30,23,,,,,,,,,,,,,,,,,,,,,,,899.4436110999668,None,899.4436110999668,None,898.9433001999278,None,j,0.4130521999904886,899.4436110999668,None,,,,,,,,,,,,,e,001,2021_Jul_02_1043,toilet,2021.1.3,99.90189631187896,
180,180,-4,4,0.94,,,,,3,0,3,0,0,31,31,29,,,,,,,,,,,,,,,,,,,,,,,900.8745057999622,None,900.8745057999622,None,900.3741675999481,None,f,0.48602819989901036,900.8745057999622,None,,,,,,,,,,,,,e,001,2021_Jul_02_1043,toilet,2021.1.3,99.90189631187896,
180,0,-4,4,1.15,,,,,3,0,3,0,0,32,32,48,,,,,,,,,,,,,,,,,,,,,,,902.3655098999152,None,902.3655098999152,None,901.8651723000221,None,j,0.40309489995706826,902.3655098999152,None,,,,,,,,,,,,,e,001,2021_Jul_02_1043,toilet,2021.1.3,99.90189631187896,
180,0,-4,4,1.03,,,,,3,0,3,0,0,33,33,46,,,,,,,,,,,,,,,,,,,,,,,903.7964808999095,None,903.7964808999095,None,903.296143900021,None,j,0.41221560002304614,903.7964808999095,None,,,,,,,,,,,,,e,001,2021_Jul_02_1043,toilet,2021.1.3,99.90189631187896,
0,180,-4,4,1.15,,,,,3,0,3,0,0,34,34,20,,,,,,,,,,,,,,,,,,,,,,,905.2174885999411,None,905.2174885999411,None,904.7171031999169,None,j,0.35112270002719015,905.2174885999411,None,,,,,,,,,,,,,e,001,2021_Jul_02_1043,toilet,2021.1.3,99.90189631187896,
0,0,-4,4,1.06,,,,,3,0,3,0,0,35,35,5,,,,,,,,,,,,,,,,,,,,,,,906.5684365999186,None,906.5684365999186,None,906.0681212999625,None,j,0.42427399998996407,906.5684365999186,None,,,,,,,,,,,,,e,001,2021_Jul_02_1043,toilet,2021.1.3,99.90189631187896,
0,0,4,-4,0.94,,,,,3,0,3,0,0,36,36,8,,,,,,,,,,,,,,,,,,,,,,,908.0093334999401,None,908.0093334999401,None,907.508994899923,None,j,0.5033447999740019,908.0093334999401,None,,,,,,,,,,,,,e,001,2021_Jul_02_1043,toilet,2021.1.3,99.90189631187896,
0,180,-4,4,1.03,,,,,3,0,3,0,0,37,37,18,,,,,,,,,,,,,,,,,,,,,,,909.5203561999369,None,909.5203561999369,None,909.0200176999206,None,f,1.0722567000193521,909.5203561999369,None,,,,,,,,,,,,,e,001,2021_Jul_02_1043,toilet,2021.1.3,99.90189631187896,
0,0,-4,4,0.85,,,,,3,0,3,0,0,38,38,0,,,,,,,,,,,,,,,,,,,,,,,911.6017676999327,None,911.6017676999327,None,911.1014324999414,None,f,0.5589074000017717,911.6017676999327,None,,,,,,,,,,,,,e,001,2021_Jul_02_1043,toilet,2021.1.3,99.90189631187896,
0,180,4,-4,1.03,,,,,3,0,3,0,0,39,39,25,,,,,,,,,,,,,,,,,,,,,,,913.1728287999285,None,913.1728287999285,None,912.6725612999871,None,f,1.307752399938181,913.1728287999285,None,,,,,,,,,,,,,e,001,2021_Jul_02_1043,toilet,2021.1.3,99.90189631187896,
180,180,4,-4,1.15,,,,,3,0,3,0,0,40,40,41,,,,,,,,,,,,,,,,,,,,,,,915.4944014999783,None,915.4944014999783,None,914.9940634999657,None,f,0.554190400056541,915.4944014999783,None,,,,,,,,,,,,,e,001,2021_Jul_02_1043,toilet,2021.1.3,99.90189631187896,
180,180,4,-4,1.06,,,,,3,0,3,0,0,41,41,40,,,,,,,,,,,,,,,,,,,,,,,917.0554575999267,None,917.0554575999267,None,916.5551193999127,None,f,0.5451674000360072,917.0554575999267,None,,,,,,,,,,,,,e,001,2021_Jul_02_1043,toilet,2021.1.3,99.90189631187896,
180,0,-4,4,0.94,,,,,3,0,3,0,0,42,42,43,,,,,,,,,,,,,,,,,,,,,,,918.6165281999856,None,918.6165281999856,None,918.1162061999785,None,f,3.527949500014074,918.6165281999856,None,,,,,,,,,,,,,e,001,2021_Jul_02_1043,toilet,2021.1.3,99.90189631187896,
180,180,4,-4,0.97,,,,,3,0,3,0,0,43,43,37,,,,,,,,,,,,,,,,,,,,,,,923.1595966999885,None,923.1595966999885,None,922.6592567999614,None,j,0.5530279000522569,923.1595966999885,None,,,,,,,,,,,,,e,001,2021_Jul_02_1043,toilet,2021.1.3,99.90189631187896,
0,180,4,-4,1.06,,,,,3,0,3,0,0,44,44,26,,,,,,,,,,,,,,,,,,,,,,,924.7206477000145,None,924.7206477000145,None,924.2203098000027,None,j,1.0239990999689326,924.7206477000145,None,,,,,,,,,,,,,e,001,2021_Jul_02_1043,toilet,2021.1.3,99.90189631187896,
0,0,4,-4,1.15,,,,,3,0,3,0,0,45,45,13,,,,,,,,,,,,,,,,,,,,,,,926.7620329000056,None,926.7620329000056,None,926.2617290000198,None,f,0.4866040999768302,926.7620329000056,None,,,,,,,,,,,,,e,001,2021_Jul_02_1043,toilet,2021.1.3,99.90189631187896,
0,180,4,-4,1.0,,,,,3,0,3,0,0,46,46,24,,,,,,,,,,,,,,,,,,,,,,,928.263045599917,None,928.263045599917,None,927.7627933999756,None,j,0.4895311000291258,928.263045599917,None,,,,,,,,,,,,,e,001,2021_Jul_02_1043,toilet,2021.1.3,99.90189631187896,
0,180,-4,4,0.94,,,,,3,0,3,0,0,47,47,15,,,,,,,,,,,,,,,,,,,,,,,929.7640645999927,None,929.7640645999927,None,929.2637648999225,None,f,0.8925617000786588,929.7640645999927,None,,,,,,,,,,,,,e,001,2021_Jul_02_1043,toilet,2021.1.3,99.90189631187896,
0,0,4,-4,1.06,,,,,3,0,3,0,0,48,48,12,,,,,,,,,,,,,,,,,,,,,,,931.6653468000004,None,931.6653468000004,None,931.1650128000183,None,f,0.975341200013645,931.6653468000004,None,,,,,,,,,,,,,e,001,2021_Jul_02_1043,toilet,2021.1.3,99.90189631187896,
