ori_st,ori_pr,xpos_st,xpos_pr,size,trials_3.thisRepN,trials_3.thisTrialN,trials_3.thisN,trials_3.thisIndex,trials_2.thisRepN,trials_2.thisTrialN,trials_2.thisN,trials_2.thisIndex,trials.thisRepN,trials.thisTrialN,trials.thisN,trials.thisIndex,wel_pra.started,wel_pra.stopped,resp_wel.keys,resp_wel.rt,resp_wel.started,resp_wel.stopped,standard_pra.started,standard_pra.stopped,prove_pra.started,prove_pra.stopped,fixation.started,fixation.stopped,resp_pra.keys,resp_pra.rt,resp_pra.started,resp_pra.stopped,instr.started,instr.stopped,key_resp_2.keys,key_resp_2.rt,key_resp_2.started,key_resp_2.stopped,standard.started,standard.stopped,probe.started,probe.stopped,text.started,text.stopped,resp.keys,resp.rt,resp.started,resp.stopped,text_2.started,text_2.stopped,key_resp.keys,key_resp.rt,key_resp.started,key_resp.stopped,participant,session,date,expName,psychopyVersion,frameRate,
,,,,,,,,,,,,,,,,,9.40088700002525,None,space,98.7916777000064,9.40088700002525,None,,,,,,,,,,,,,,,,,,,,,,,,,,,,,,,,,r,001,2021_Jul_10_1642,toilet,2021.1.3,99.89261545799386,
0,0,-4,4,1.15,0,0,0,2,,,,,,,,,,,,,,,109.21751809999114,None,109.21751809999114,None,108.71717830002308,None,j,5.167017099971417,109.21751809999114,None,,,,,,,,,,,,,,,,,,,,,,,r,001,2021_Jul_10_1642,toilet,2021.1.3,99.89261545799386,
180,0,-4,4,0.85,0,1,1,12,,,,,,,,,,,,,,,115.40171440003905,None,115.40171440003905,None,114.90144400001736,None,f,1.8147246000007726,115.40171440003905,None,,,,,,,,,,,,,,,,,,,,,,,r,001,2021_Jul_10_1642,toilet,2021.1.3,99.89261545799386,
180,180,-4,4,0.85,0,2,2,8,,,,,,,,,,,,,,,118.223630100023,None,118.223630100023,None,117.72328690002905,None,f,1.0888377000228502,118.223630100023,None,,,,,,,,,,,,,,,,,,,,,,,r,001,2021_Jul_10_1642,toilet,2021.1.3,99.89261545799386,
0,180,-4,4,0.85,0,3,3,4,,,,,,,,,,,,,,,120.32502889999887,None,120.32502889999887,None,119.82472330000019,None,f,1.499396999948658,120.32502889999887,None,,,,,,,,,,,,,,,,,,,,,,,r,001,2021_Jul_10_1642,toilet,2021.1.3,99.89261545799386,
180,180,-4,4,0.85,0,4,4,9,,,,,,,,,,,,,,,122.83679760002997,None,122.83679760002997,None,122.33643030002713,None,f,1.691543199995067,122.83679760002997,None,,,,,,,,,,,,,,,,,,,,,,,r,001,2021_Jul_10_1642,toilet,2021.1.3,99.89261545799386,
0,180,4,-4,0.85,0,5,5,5,,,,,,,,,,,,,,,125.5285797000397,None,125.5285797000397,None,125.02823980001267,None,j,1.1918643999961205,125.5285797000397,None,,,,,,,,,,,,,,,,,,,,,,,r,001,2021_Jul_10_1642,toilet,2021.1.3,99.89261545799386,
180,0,-4,4,1.15,0,6,6,15,,,,,,,,,,,,,,,127.73007230000803,None,127.73007230000803,None,127.22973409999395,None,j,1.3423659999971278,127.73007230000803,None,,,,,,,,,,,,,,,,,,,,,,,r,001,2021_Jul_10_1642,toilet,2021.1.3,99.89261545799386,
0,0,-4,4,0.85,0,7,7,0,,,,,,,,,,,,,,,130.081751300022,None,130.081751300022,None,129.5814000000246,None,f,1.3425346000003628,130.081751300022,None,,,,,,,,,,,,,,,,,,,,,,,r,001,2021_Jul_10_1642,toilet,2021.1.3,99.89261545799386,
180,0,-4,4,1.15,0,8,8,14,,,,,,,,,,,,,,,132.43326220003655,None,132.43326220003655,None,131.93292250001105,None,j,0.6553386999876238,132.43326220003655,None,,,,,,,,,,,,,,,,,,,,,,,r,001,2021_Jul_10_1642,toilet,2021.1.3,99.89261545799386,
0,0,4,-4,1.15,0,9,9,3,,,,,,,,,,,,,,,134.10439520003274,None,134.10439520003274,None,133.60405630001333,None,f,0.7280761000001803,134.10439520003274,None,,,,,,,,,,,,,,,,,,,,,,,r,001,2021_Jul_10_1642,toilet,2021.1.3,99.89261545799386,
0,0,4,-4,0.85,0,10,10,1,,,,,,,,,,,,,,,135.84557599999243,None,135.84557599999243,None,135.345239199989,None,j,0.5868897999753244,135.84557599999243,None,,,,,,,,,,,,,,,,,,,,,,,r,001,2021_Jul_10_1642,toilet,2021.1.3,99.89261545799386,
180,180,-4,4,1.15,0,11,11,11,,,,,,,,,,,,,,,137.44675170001574,None,137.44675170001574,None,136.94639850000385,None,j,0.8736273999675177,137.44675170001574,None,,,,,,,,,,,,,,,,,,,,,,,r,001,2021_Jul_10_1642,toilet,2021.1.3,99.89261545799386,
0,180,4,-4,1.15,0,12,12,7,,,,,,,,,,,,,,,139.32793530001072,None,139.32793530001072,None,138.82760409999173,None,f,1.1843995000235736,139.32793530001072,None,,,,,,,,,,,,,,,,,,,,,,,r,001,2021_Jul_10_1642,toilet,2021.1.3,99.89261545799386,
180,0,-4,4,0.85,0,13,13,13,,,,,,,,,,,,,,,141.51942349999445,None,141.51942349999445,None,141.01908540003933,None,f,1.2169906999915838,141.51942349999445,None,,,,,,,,,,,,,,,,,,,,,,,r,001,2021_Jul_10_1642,toilet,2021.1.3,99.89261545799386,
180,180,-4,4,1.15,0,14,14,10,,,,,,,,,,,,,,,143.7509410000057,None,143.7509410000057,None,143.25067330000456,None,j,0.9214991999906488,143.7509410000057,None,,,,,,,,,,,,,,,,,,,,,,,r,001,2021_Jul_10_1642,toilet,2021.1.3,99.89261545799386,
0,180,-4,4,1.15,0,15,15,6,,,,,,,,,,,,,,,145.67223710002145,None,145.67223710002145,None,145.18198510003276,None,j,0.9042247000033967,145.67223710002145,None,,,,,,,,,,,,,,,,,,,,,,,r,001,2021_Jul_10_1642,toilet,2021.1.3,99.89261545799386,
180,0,4,-4,1.06,,,,,0,0,0,0,0,0,0,54,,,,,,,,,,,,,,,,,146.60287380003138,None,space,77.15778429998318,146.60287380003138,None,224.78597570001148,None,224.78597570001148,None,224.28555319999577,None,f,0.6383769999956712,224.78597570001148,None,,,,,,,r,001,2021_Jul_10_1642,toilet,2021.1.3,99.89261545799386,
180,180,4,-4,1.15,,,,,0,0,0,0,0,1,1,41,,,,,,,,,,,,,,,,,,,,,,,226.43701090000104,None,226.43701090000104,None,225.9367121999967,None,f,0.5552832000539638,226.43701090000104,None,,,,,,,r,001,2021_Jul_10_1642,toilet,2021.1.3,99.89261545799386,
180,0,4,-4,0.85,,,,,0,0,0,0,0,2,2,49,,,,,,,,,,,,,,,,,,,,,,,227.9980689000222,None,227.9980689000222,None,227.49770170002012,None,j,0.4181752000004053,227.9980689000222,None,,,,,,,r,001,2021_Jul_10_1642,toilet,2021.1.3,99.89261545799386,
0,0,4,-4,1.03,,,,,0,0,0,0,0,3,3,11,,,,,,,,,,,,,,,,,,,,,,,229.41903540003113,None,229.41903540003113,None,228.91869030002272,None,f,1.7812693999730982,229.41903540003113,None,,,,,,,r,001,2021_Jul_10_1642,toilet,2021.1.3,99.89261545799386,
0,0,-4,4,1.0,,,,,0,0,0,0,0,4,4,3,,,,,,,,,,,,,,,,,,,,,,,232.20101100002648,None,232.20101100002648,None,231.70057690003887,None,j,0.727525099995546,232.20101100002648,None,,,,,,,r,001,2021_Jul_10_1642,toilet,2021.1.3,99.89261545799386,
0,180,4,-4,0.94,,,,,0,0,0,0,0,5,5,22,,,,,,,,,,,,,,,,,,,,,,,233.94209980004234,None,233.94209980004234,None,233.44177790003596,None,j,1.1943595999618992,233.94209980004234,None,,,,,,,r,001,2021_Jul_10_1642,toilet,2021.1.3,99.89261545799386,
0,0,4,-4,0.97,,,,,0,0,0,0,0,6,6,9,,,,,,,,,,,,,,,,,,,,,,,236.14358760003233,None,236.14358760003233,None,235.64325100003043,None,j,0.4968547999742441,236.14358760003233,None,,,,,,,r,001,2021_Jul_10_1642,toilet,2021.1.3,99.89261545799386,
180,180,4,-4,0.85,,,,,0,0,0,0,0,7,7,35,,,,,,,,,,,,,,,,,,,,,,,237.6546221000026,None,237.6546221000026,None,237.15427470003488,None,j,1.1778101000236347,237.6546221000026,None,,,,,,,r,001,2021_Jul_10_1642,toilet,2021.1.3,99.89261545799386,
0,180,4,-4,1.15,,,,,0,0,0,0,0,8,8,27,,,,,,,,,,,,,,,,,,,,,,,239.84618970000884,None,239.84618970000884,None,239.34576719999313,None,f,0.4743072999990545,239.84618970000884,None,,,,,,,r,001,2021_Jul_10_1642,toilet,2021.1.3,99.89261545799386,
180,0,-4,4,1.0,,,,,0,0,0,0,0,9,9,45,,,,,,,,,,,,,,,,,,,,,,,241.33711670001503,None,241.33711670001503,None,240.83685810002498,None,j,2.2471516000223346,241.33711670001503,None,,,,,,,r,001,2021_Jul_10_1642,toilet,2021.1.3,99.89261545799386,
0,180,4,-4,1.06,,,,,0,0,0,0,0,10,10,26,,,,,,,,,,,,,,,,,,,,,,,244.5893183000153,None,244.5893183000153,None,244.08896160003496,None,f,0.5309547000215389,244.5893183000153,None,,,,,,,r,001,2021_Jul_10_1642,toilet,2021.1.3,99.89261545799386,
0,0,-4,4,0.97,,,,,0,0,0,0,0,11,11,2,,,,,,,,,,,,,,,,,,,,,,,246.1204547000234,None,246.1204547000234,None,245.62001910002436,None,f,1.864118299970869,246.1204547000234,None,,,,,,,r,001,2021_Jul_10_1642,toilet,2021.1.3,99.89261545799386,
0,180,-4,4,1.0,,,,,0,0,0,0,0,12,12,17,,,,,,,,,,,,,,,,,,,,,,,249.00231569999596,None,249.00231569999596,None,248.5019692000351,None,j,2.438355699996464,249.00231569999596,None,,,,,,,r,001,2021_Jul_10_1642,toilet,2021.1.3,99.89261545799386,
0,0,-4,4,0.94,,,,,0,0,0,0,0,13,13,1,,,,,,,,,,,,,,,,,,,,,,,252.45465110003715,None,252.45465110003715,None,251.95431090000784,None,f,0.6338328999700025,252.45465110003715,None,,,,,,,r,001,2021_Jul_10_1642,toilet,2021.1.3,99.89261545799386,
0,180,-4,4,1.15,,,,,0,0,0,0,0,14,14,20,,,,,,,,,,,,,,,,,,,,,,,254.10585600003833,None,254.10585600003833,None,253.60546739998972,None,j,0.5026131000486203,254.10585600003833,None,,,,,,,r,001,2021_Jul_10_1642,toilet,2021.1.3,99.89261545799386,
180,180,4,-4,0.97,,,,,0,0,0,0,0,15,15,37,,,,,,,,,,,,,,,,,,,,,,,255.62684640003135,None,255.62684640003135,None,255.12648219999392,None,j,1.0774006000137888,255.62684640003135,None,,,,,,,r,001,2021_Jul_10_1642,toilet,2021.1.3,99.89261545799386,
0,0,-4,4,0.85,,,,,0,0,0,0,0,16,16,0,,,,,,,,,,,,,,,,,,,,,,,257.7082134000375,None,257.7082134000375,None,257.20787480002036,None,f,0.6122506000101566,257.7082134000375,None,,,,,,,r,001,2021_Jul_10_1642,toilet,2021.1.3,99.89261545799386,
180,180,4,-4,1.03,,,,,0,0,0,0,0,17,17,39,,,,,,,,,,,,,,,,,,,,,,,259.32931300002383,None,259.32931300002383,None,258.8289754000143,None,f,0.6074775999877602,259.32931300002383,None,,,,,,,r,001,2021_Jul_10_1642,toilet,2021.1.3,99.89261545799386,
0,180,-4,4,0.97,,,,,0,0,0,0,0,18,18,16,,,,,,,,,,,,,,,,,,,,,,,260.96044759999495,None,260.96044759999495,None,260.46008620003704,None,f,1.6159928999841213,260.96044759999495,None,,,,,,,r,001,2021_Jul_10_1642,toilet,2021.1.3,99.89261545799386,
180,0,-4,4,1.03,,,,,0,0,0,0,0,19,19,46,,,,,,,,,,,,,,,,,,,,,,,263.592213099997,None,263.592213099997,None,263.09186770004453,None,j,2.408369699958712,263.592213099997,None,,,,,,,r,001,2021_Jul_10_1642,toilet,2021.1.3,99.89261545799386,
0,180,4,-4,1.0,,,,,0,0,0,0,0,20,20,24,,,,,,,,,,,,,,,,,,,,,,,267.0145238999976,None,267.0145238999976,None,266.5142017999897,None,j,1.5458975999499671,267.0145238999976,None,,,,,,,r,001,2021_Jul_10_1642,toilet,2021.1.3,99.89261545799386,
180,180,-4,4,1.0,,,,,0,0,0,0,0,21,21,31,,,,,,,,,,,,,,,,,,,,,,,269.5763551000273,None,269.5763551000273,None,269.07593320001615,None,j,2.775906399998348,269.5763551000273,None,,,,,,,r,001,2021_Jul_10_1642,toilet,2021.1.3,99.89261545799386,
180,0,4,-4,0.97,,,,,0,0,0,0,0,22,22,51,,,,,,,,,,,,,,,,,,,,,,,273.35882640001364,None,273.35882640001364,None,272.85848670004634,None,j,1.9695933000184596,273.35882640001364,None,,,,,,,r,001,2021_Jul_10_1642,toilet,2021.1.3,99.89261545799386,
180,180,-4,4,0.97,,,,,0,0,0,0,0,23,23,30,,,,,,,,,,,,,,,,,,,,,,,276.340934100037,None,276.340934100037,None,275.8405094000045,None,f,1.3393605000455864,276.340934100037,None,,,,,,,r,001,2021_Jul_10_1642,toilet,2021.1.3,99.89261545799386,
180,180,-4,4,0.85,,,,,0,0,0,0,0,24,24,28,,,,,,,,,,,,,,,,,,,,,,,278.6924689000007,None,278.6924689000007,None,278.1921129000257,None,f,0.5878134000231512,278.6924689000007,None,,,,,,,r,001,2021_Jul_10_1642,toilet,2021.1.3,99.89261545799386,
180,180,4,-4,1.06,,,,,0,0,0,0,0,25,25,40,,,,,,,,,,,,,,,,,,,,,,,280.28352430002997,None,280.28352430002997,None,279.78318180004135,None,f,1.9090234999894165,280.28352430002997,None,,,,,,,r,001,2021_Jul_10_1642,toilet,2021.1.3,99.89261545799386,
180,0,4,-4,1.0,,,,,0,0,0,0,0,26,26,52,,,,,,,,,,,,,,,,,,,,,,,283.2055071000359,None,283.2055071000359,None,282.7051641000435,None,j,2.4107637999695726,283.2055071000359,None,,,,,,,r,001,2021_Jul_10_1642,toilet,2021.1.3,99.89261545799386,
180,180,-4,4,0.94,,,,,0,0,0,0,0,27,27,29,,,,,,,,,,,,,,,,,,,,,,,286.6178243000177,None,286.6178243000177,None,286.11747870000545,None,f,1.1264330000267364,286.6178243000177,None,,,,,,,r,001,2021_Jul_10_1642,toilet,2021.1.3,99.89261545799386,
180,0,-4,4,0.94,,,,,0,0,0,0,0,28,28,43,,,,,,,,,,,,,,,,,,,,,,,288.7492680000141,None,288.7492680000141,None,288.24893940001493,None,f,0.5790712999878451,288.7492680000141,None,,,,,,,r,001,2021_Jul_10_1642,toilet,2021.1.3,99.89261545799386,
0,180,4,-4,0.85,,,,,0,0,0,0,0,29,29,21,,,,,,,,,,,,,,,,,,,,,,,290.340344700031,None,290.340344700031,None,289.84000560001004,None,j,0.5559177999966778,290.340344700031,None,,,,,,,r,001,2021_Jul_10_1642,toilet,2021.1.3,99.89261545799386,
180,180,4,-4,0.94,,,,,0,0,0,0,0,30,30,36,,,,,,,,,,,,,,,,,,,,,,,291.90149190003285,None,291.90149190003285,None,291.4011518000043,None,j,0.5628355999942869,291.90149190003285,None,,,,,,,r,001,2021_Jul_10_1642,toilet,2021.1.3,99.89261545799386,
180,180,-4,4,1.15,,,,,0,0,0,0,0,31,31,34,,,,,,,,,,,,,,,,,,,,,,,293.47247120004613,None,293.47247120004613,None,292.97212390002096,None,j,0.49578810000093654,293.47247120004613,None,,,,,,,r,001,2021_Jul_10_1642,toilet,2021.1.3,99.89261545799386,
0,0,-4,4,1.06,,,,,0,0,0,0,0,32,32,5,,,,,,,,,,,,,,,,,,,,,,,294.9734839000157,None,294.9734839000157,None,294.4731567000272,None,j,0.5789253000402823,294.9734839000157,None,,,,,,,r,001,2021_Jul_10_1642,toilet,2021.1.3,99.89261545799386,
0,0,4,-4,1.0,,,,,0,0,0,0,0,33,33,10,,,,,,,,,,,,,,,,,,,,,,,296.56456299999263,None,296.56456299999263,None,296.0642228000215,None,j,2.4276942999567837,296.56456299999263,None,,,,,,,r,001,2021_Jul_10_1642,toilet,2021.1.3,99.89261545799386,
0,180,-4,4,0.94,,,,,0,0,0,0,0,34,34,15,,,,,,,,,,,,,,,,,,,,,,,299.9968907000148,None,299.9968907000148,None,299.49667840002803,None,f,1.1393795000039972,299.9968907000148,None,,,,,,,r,001,2021_Jul_10_1642,toilet,2021.1.3,99.89261545799386,
180,0,4,-4,0.94,,,,,0,0,0,0,0,35,35,50,,,,,,,,,,,,,,,,,,,,,,,302.1383454000461,None,302.1383454000461,None,301.63800680002896,None,j,0.6459163000108674,302.1383454000461,None,,,,,,,r,001,2021_Jul_10_1642,toilet,2021.1.3,99.89261545799386,
0,0,4,-4,0.94,,,,,0,0,0,0,0,36,36,8,,,,,,,,,,,,,,,,,,,,,,,303.7894627000205,None,303.7894627000205,None,303.28912550001405,None,j,0.8508511999971233,303.7894627000205,None,,,,,,,r,001,2021_Jul_10_1642,toilet,2021.1.3,99.89261545799386,
180,0,4,-4,1.15,,,,,0,0,0,0,0,37,37,55,,,,,,,,,,,,,,,,,,,,,,,305.6407743000309,None,305.6407743000309,None,305.14037600002484,None,f,0.6636338000535034,305.6407743000309,None,,,,,,,r,001,2021_Jul_10_1642,toilet,2021.1.3,99.89261545799386,
180,0,-4,4,0.97,,,,,0,0,0,0,0,38,38,44,,,,,,,,,,,,,,,,,,,,,,,307.32190249999985,None,307.32190249999985,None,306.8215493000462,None,j,1.046349000011105,307.32190249999985,None,,,,,,,r,001,2021_Jul_10_1642,toilet,2021.1.3,99.89261545799386,
0,0,4,-4,1.06,,,,,0,0,0,0,0,39,39,12,,,,,,,,,,,,,,,,,,,,,,,309.37324799998896,None,309.37324799998896,None,308.87290890002623,None,f,0.6910987999872304,309.37324799998896,None,,,,,,,r,001,2021_Jul_10_1642,toilet,2021.1.3,99.89261545799386,
0,0,-4,4,1.03,,,,,0,0,0,0,0,40,40,4,,,,,,,,,,,,,,,,,,,,,,,311.07440440001665,None,311.07440440001665,None,310.5740609000204,None,j,0.4460141999879852,311.07440440001665,None,,,,,,,r,001,2021_Jul_10_1642,toilet,2021.1.3,99.89261545799386,
180,180,-4,4,1.03,,,,,0,0,0,0,0,41,41,32,,,,,,,,,,,,,,,,,,,,,,,312.54540040000575,None,312.54540040000575,None,312.0450639000046,None,j,0.5269936000113375,312.54540040000575,None,,,,,,,r,001,2021_Jul_10_1642,toilet,2021.1.3,99.89261545799386,
0,0,4,-4,0.85,,,,,0,0,0,0,0,42,42,7,,,,,,,,,,,,,,,,,,,,,,,314.0865324999904,None,314.0865324999904,None,313.58611000003293,None,j,0.4738000999786891,314.0865324999904,None,,,,,,,r,001,2021_Jul_10_1642,toilet,2021.1.3,99.89261545799386,
0,180,-4,4,1.03,,,,,0,0,0,0,0,43,43,18,,,,,,,,,,,,,,,,,,,,,,,315.5774570000358,None,315.5774570000358,None,315.07711660000496,None,j,0.5829362999647856,315.5774570000358,None,,,,,,,r,001,2021_Jul_10_1642,toilet,2021.1.3,99.89261545799386,
180,180,-4,4,1.06,,,,,0,0,0,0,0,44,44,33,,,,,,,,,,,,,,,,,,,,,,,317.1685390000348,None,317.1685390000348,None,316.66819779999787,None,j,0.6077256000135094,317.1685390000348,None,,,,,,,r,001,2021_Jul_10_1642,toilet,2021.1.3,99.89261545799386,
0,180,-4,4,1.06,,,,,0,0,0,0,0,45,45,19,,,,,,,,,,,,,,,,,,,,,,,318.77963180001825,None,318.77963180001825,None,318.2792891000281,None,j,1.556750199990347,318.77963180001825,None,,,,,,,r,001,2021_Jul_10_1642,toilet,2021.1.3,99.89261545799386,
0,180,-4,4,0.85,,,,,0,0,0,0,0,46,46,14,,,,,,,,,,,,,,,,,,,,,,,321.3414396000444,None,321.3414396000444,None,320.841115200019,None,f,0.6750488000106998,321.3414396000444,None,,,,,,,r,001,2021_Jul_10_1642,toilet,2021.1.3,99.89261545799386,
180,0,-4,4,0.85,,,,,0,0,0,0,0,47,47,42,,,,,,,,,,,,,,,,,,,,,,,323.0325074000284,None,323.0325074000284,None,322.53217170003336,None,f,0.5197401000186801,323.0325074000284,None,,,,,,,r,001,2021_Jul_10_1642,toilet,2021.1.3,99.89261545799386,
0,180,4,-4,0.97,,,,,0,0,0,0,0,48,48,23,,,,,,,,,,,,,,,,,,,,,,,324.55354220001027,None,324.55354220001027,None,324.0532030000468,None,j,0.42279169999528676,324.55354220001027,None,,,,,,,r,001,2021_Jul_10_1642,toilet,2021.1.3,99.89261545799386,
0,0,4,-4,1.15,,,,,0,0,0,0,0,49,49,13,,,,,,,,,,,,,,,,,,,,,,,325.99456900003133,None,325.99456900003133,None,325.5041870000423,None,f,0.4697330999770202,325.99456900003133,None,,,,,,,r,001,2021_Jul_10_1642,toilet,2021.1.3,99.89261545799386,
180,180,4,-4,1.0,,,,,0,0,0,0,0,50,50,38,,,,,,,,,,,,,,,,,,,,,,,327.4656154999975,None,327.4656154999975,None,326.96517300000414,None,j,0.6787104000104591,327.4656154999975,None,,,,,,,r,001,2021_Jul_10_1642,toilet,2021.1.3,99.89261545799386,
180,0,4,-4,1.03,,,,,0,0,0,0,0,51,51,53,,,,,,,,,,,,,,,,,,,,,,,329.1567023000098,None,329.1567023000098,None,328.6563232000335,None,f,0.7955410999711603,329.1567023000098,None,,,,,,,r,001,2021_Jul_10_1642,toilet,2021.1.3,99.89261545799386,
0,0,-4,4,1.15,,,,,0,0,0,0,0,52,52,6,,,,,,,,,,,,,,,,,,,,,,,330.9578850000398,None,330.9578850000398,None,330.45754420000594,None,j,0.43438379996223375,330.9578850000398,None,,,,,,,r,001,2021_Jul_10_1642,toilet,2021.1.3,99.89261545799386,
0,180,4,-4,1.03,,,,,0,0,0,0,0,53,53,25,,,,,,,,,,,,,,,,,,,,,,,332.3988616000279,None,332.3988616000279,None,331.89852330001304,None,f,0.4976192999747582,332.3988616000279,None,,,,,,,r,001,2021_Jul_10_1642,toilet,2021.1.3,99.89261545799386,
180,0,-4,4,1.15,,,,,0,0,0,0,0,54,54,48,,,,,,,,,,,,,,,,,,,,,,,333.9098843000247,None,333.9098843000247,None,333.4095456000068,None,j,0.5704542000312358,333.9098843000247,None,,,,,,,r,001,2021_Jul_10_1642,toilet,2021.1.3,99.89261545799386,
180,0,-4,4,1.06,,,,,0,0,0,0,0,55,55,47,,,,,,,,,,,,,,,,,,,,,,,335.4910724000074,None,335.4910724000074,None,334.9906181000406,None,j,1.1652159999939613,335.4910724000074,None,,,,,,,r,001,2021_Jul_10_1642,toilet,2021.1.3,99.89261545799386,
0,180,-4,4,0.94,,,,,0,0,0,0,1,0,56,15,,,,,,,,,,,,,,,,,,,,,,,337.662427400006,None,337.662427400006,None,337.16209220001474,None,f,0.6258042000117712,337.662427400006,None,,,,,,,r,001,2021_Jul_10_1642,toilet,2021.1.3,99.89261545799386,
180,0,-4,4,1.15,,,,,0,0,0,0,1,1,57,48,,,,,,,,,,,,,,,,,,,,,,,339.29353140003514,None,339.29353140003514,None,338.793246700021,None,j,0.4828396000084467,339.29353140003514,None,,,,,,,r,001,2021_Jul_10_1642,toilet,2021.1.3,99.89261545799386,
180,180,-4,4,1.15,,,,,0,0,0,0,1,2,58,34,,,,,,,,,,,,,,,,,,,,,,,340.79455490002874,None,340.79455490002874,None,340.294215300004,None,j,0.5177889000042342,340.79455490002874,None,,,,,,,r,001,2021_Jul_10_1642,toilet,2021.1.3,99.89261545799386,
0,0,4,-4,1.06,,,,,0,0,0,0,1,3,59,12,,,,,,,,,,,,,,,,,,,,,,,342.315667900024,None,342.315667900024,None,341.8152531000087,None,f,0.5967054999782704,342.315667900024,None,,,,,,,r,001,2021_Jul_10_1642,toilet,2021.1.3,99.89261545799386,
0,0,-4,4,1.03,,,,,0,0,0,0,1,4,60,4,,,,,,,,,,,,,,,,,,,,,,,343.92669260001276,None,343.92669260001276,None,343.42642850003904,None,j,0.6175488000153564,343.92669260001276,None,,,,,,,r,001,2021_Jul_10_1642,toilet,2021.1.3,99.89261545799386,
180,0,4,-4,1.15,,,,,0,0,0,0,1,5,61,55,,,,,,,,,,,,,,,,,,,,,,,345.54777579999063,None,345.54777579999063,None,345.04744150000624,None,f,0.4844662999967113,345.54777579999063,None,,,,,,,r,001,2021_Jul_10_1642,toilet,2021.1.3,99.89261545799386,
0,180,-4,4,1.0,,,,,0,0,0,0,1,6,62,17,,,,,,,,,,,,,,,,,,,,,,,347.03879020002205,None,347.03879020002205,None,346.53845749999164,None,j,0.6096174999838695,347.03879020002205,None,,,,,,,r,001,2021_Jul_10_1642,toilet,2021.1.3,99.89261545799386,
180,0,4,-4,0.85,,,,,0,0,0,0,1,7,63,49,,,,,,,,,,,,,,,,,,,,,,,348.65988400002243,None,348.65988400002243,None,348.1595500000403,None,j,0.42846590001136065,348.65988400002243,None,,,,,,,r,001,2021_Jul_10_1642,toilet,2021.1.3,99.89261545799386,
180,180,4,-4,1.15,,,,,0,0,0,0,1,8,64,41,,,,,,,,,,,,,,,,,,,,,,,350.10087160003604,None,350.10087160003604,None,349.6006054999889,None,f,0.4755779999541119,350.10087160003604,None,,,,,,,r,001,2021_Jul_10_1642,toilet,2021.1.3,99.89261545799386,
0,0,4,-4,1.15,,,,,0,0,0,0,1,9,65,13,,,,,,,,,,,,,,,,,,,,,,,351.59187540004496,None,351.59187540004496,None,351.09161460003816,None,f,0.48836259997915477,351.59187540004496,None,,,,,,,r,001,2021_Jul_10_1642,toilet,2021.1.3,99.89261545799386,
180,180,-4,4,0.97,,,,,0,0,0,0,1,10,66,30,,,,,,,,,,,,,,,,,,,,,,,353.0828851000406,None,353.0828851000406,None,352.5825515000033,None,j,0.46935209998628125,353.0828851000406,None,,,,,,,r,001,2021_Jul_10_1642,toilet,2021.1.3,99.89261545799386,
180,180,4,-4,1.06,,,,,0,0,0,0,1,11,67,40,,,,,,,,,,,,,,,,,,,,,,,354.5538841999951,None,354.5538841999951,None,354.05354670004454,None,f,0.5346033999812789,354.5538841999951,None,,,,,,,r,001,2021_Jul_10_1642,toilet,2021.1.3,99.89261545799386,
0,0,4,-4,0.94,,,,,0,0,0,0,1,12,68,8,,,,,,,,,,,,,,,,,,,,,,,356.1149466999923,None,356.1149466999923,None,355.6146098000463,None,j,0.4293822000036016,356.1149466999923,None,,,,,,,r,001,2021_Jul_10_1642,toilet,2021.1.3,99.89261545799386,
0,180,-4,4,1.06,,,,,0,0,0,0,1,13,69,19,,,,,,,,,,,,,,,,,,,,,,,357.5559594000224,None,357.5559594000224,None,357.05561080004554,None,j,1.532356800045818,357.5559594000224,None,,,,,,,r,001,2021_Jul_10_1642,toilet,2021.1.3,99.89261545799386,
0,180,4,-4,0.97,,,,,0,0,0,0,1,14,70,23,,,,,,,,,,,,,,,,,,,,,,,360.0876389000332,None,360.0876389000332,None,359.5873162000207,None,j,1.144596999976784,360.0876389000332,None,,,,,,,r,001,2021_Jul_10_1642,toilet,2021.1.3,99.89261545799386,
180,0,-4,4,1.0,,,,,0,0,0,0,1,15,71,45,,,,,,,,,,,,,,,,,,,,,,,362.2390923000057,None,362.2390923000057,None,361.73875720001524,None,f,0.7053601000225171,362.2390923000057,None,,,,,,,r,001,2021_Jul_10_1642,toilet,2021.1.3,99.89261545799386,
180,180,-4,4,0.85,,,,,0,0,0,0,1,16,72,28,,,,,,,,,,,,,,,,,,,,,,,363.96026800002437,None,363.96026800002437,None,363.4599179000361,None,f,0.5202078999718651,363.96026800002437,None,,,,,,,r,001,2021_Jul_10_1642,toilet,2021.1.3,99.89261545799386,
0,0,-4,4,1.06,,,,,0,0,0,0,1,17,73,5,,,,,,,,,,,,,,,,,,,,,,,365.49138970003696,None,365.49138970003696,None,364.99104769999394,None,j,0.4609313000109978,365.49138970003696,None,,,,,,,r,001,2021_Jul_10_1642,toilet,2021.1.3,99.89261545799386,
180,0,-4,4,0.85,,,,,0,0,0,0,1,18,74,42,,,,,,,,,,,,,,,,,,,,,,,366.9623050999944,None,366.9623050999944,None,366.4619603000465,None,f,0.42994719999842346,366.9623050999944,None,,,,,,,r,001,2021_Jul_10_1642,toilet,2021.1.3,99.89261545799386,
0,0,4,-4,1.03,,,,,0,0,0,0,1,19,75,11,,,,,,,,,,,,,,,,,,,,,,,368.393268200045,None,368.393268200045,None,367.89293010003166,None,j,0.43911159998970106,368.393268200045,None,,,,,,,r,001,2021_Jul_10_1642,toilet,2021.1.3,99.89261545799386,
0,180,-4,4,1.03,,,,,0,0,0,0,1,20,76,18,,,,,,,,,,,,,,,,,,,,,,,369.84425100003136,None,369.84425100003136,None,369.3439175999956,None,j,1.8839933999697678,369.84425100003136,None,,,,,,,r,001,2021_Jul_10_1642,toilet,2021.1.3,99.89261545799386,
0,180,4,-4,1.06,,,,,0,0,0,0,1,21,77,26,,,,,,,,,,,,,,,,,,,,,,,372.73630520002916,None,372.73630520002916,None,372.23595490003936,None,f,0.8158756000339054,372.73630520002916,None,,,,,,,r,001,2021_Jul_10_1642,toilet,2021.1.3,99.89261545799386,
180,0,4,-4,1.06,,,,,0,0,0,0,1,22,78,54,,,,,,,,,,,,,,,,,,,,,,,374.55744540004525,None,374.55744540004525,None,374.057109699992,None,f,1.1708811999997124,374.55744540004525,None,,,,,,,r,001,2021_Jul_10_1642,toilet,2021.1.3,99.89261545799386,
180,0,4,-4,1.0,,,,,0,0,0,0,1,23,79,52,,,,,,,,,,,,,,,,,,,,,,,376.7389301999938,None,376.7389301999938,None,376.2385852000443,None,j,0.5253841999801807,376.7389301999938,None,,,,,,,r,001,2021_Jul_10_1642,toilet,2021.1.3,99.89261545799386,
180,180,-4,4,1.0,,,,,0,0,0,0,1,24,80,31,,,,,,,,,,,,,,,,,,,,,,,378.27997590001905,None,378.27997590001905,None,377.77963050000835,None,j,0.6003596999798901,378.27997590001905,None,,,,,,,r,001,2021_Jul_10_1642,toilet,2021.1.3,99.89261545799386,
0,0,-4,4,1.15,,,,,0,0,0,0,1,25,81,6,,,,,,,,,,,,,,,,,,,,,,,379.89106420002645,None,379.89106420002645,None,379.3908214000403,None,j,0.46132140001282096,379.89106420002645,None,,,,,,,r,001,2021_Jul_10_1642,toilet,2021.1.3,99.89261545799386,
0,180,4,-4,0.94,,,,,0,0,0,0,1,26,82,22,,,,,,,,,,,,,,,,,,,,,,,381.3520535000134,None,381.3520535000134,None,380.8617354000453,None,j,0.5842770999879576,381.3520535000134,None,,,,,,,r,001,2021_Jul_10_1642,toilet,2021.1.3,99.89261545799386,
0,0,-4,4,0.97,,,,,0,0,0,0,1,27,83,2,,,,,,,,,,,,,,,,,,,,,,,382.9431462000357,None,382.9431462000357,None,382.4427953000413,None,f,0.5612521999864839,382.9431462000357,None,,,,,,,r,001,2021_Jul_10_1642,toilet,2021.1.3,99.89261545799386,
0,180,-4,4,0.97,,,,,0,0,0,0,1,28,84,16,,,,,,,,,,,,,,,,,,,,,,,384.5142054000171,None,384.5142054000171,None,384.0138580999919,None,j,1.2460345000145026,384.5142054000171,None,,,,,,,r,001,2021_Jul_10_1642,toilet,2021.1.3,99.89261545799386,
180,0,-4,4,0.97,,,,,0,0,0,0,1,29,85,44,,,,,,,,,,,,,,,,,,,,,,,386.7758237000089,None,386.7758237000089,None,386.275392999989,None,f,0.6804718999774195,386.7758237000089,None,,,,,,,r,001,2021_Jul_10_1642,toilet,2021.1.3,99.89261545799386,
180,0,-4,4,1.06,,,,,0,0,0,0,1,30,86,47,,,,,,,,,,,,,,,,,,,,,,,388.4668812000309,None,388.4668812000309,None,387.96662469999865,None,j,0.5734513999777846,388.4668812000309,None,,,,,,,r,001,2021_Jul_10_1642,toilet,2021.1.3,99.89261545799386,
180,180,4,-4,0.85,,,,,0,0,0,0,1,31,87,35,,,,,,,,,,,,,,,,,,,,,,,390.04795169999124,None,390.04795169999124,None,389.54761230002623,None,j,0.4002710999920964,390.04795169999124,None,,,,,,,r,001,2021_Jul_10_1642,toilet,2021.1.3,99.89261545799386,
0,180,4,-4,0.85,,,,,0,0,0,0,1,32,88,21,,,,,,,,,,,,,,,,,,,,,,,391.4488995000138,None,391.4488995000138,None,390.9485696000047,None,j,0.42343480000272393,391.4488995000138,None,,,,,,,r,001,2021_Jul_10_1642,toilet,2021.1.3,99.89261545799386,
180,180,-4,4,1.06,,,,,0,0,0,0,1,33,89,33,,,,,,,,,,,,,,,,,,,,,,,392.88987610000186,None,392.88987610000186,None,392.38953620003304,None,j,0.5345705000218004,392.88987610000186,None,,,,,,,r,001,2021_Jul_10_1642,toilet,2021.1.3,99.89261545799386,
0,180,-4,4,0.85,,,,,0,0,0,0,1,34,90,14,,,,,,,,,,,,,,,,,,,,,,,394.441015599994,None,394.441015599994,None,393.94067650003126,None,f,0.4713074000319466,394.441015599994,None,,,,,,,r,001,2021_Jul_10_1642,toilet,2021.1.3,99.89261545799386,
0,180,4,-4,1.15,,,,,0,0,0,0,1,35,91,27,,,,,,,,,,,,,,,,,,,,,,,395.91193280002335,None,395.91193280002335,None,395.42162700003246,None,f,0.4562447000062093,395.91193280002335,None,,,,,,,r,001,2021_Jul_10_1642,toilet,2021.1.3,99.89261545799386,
0,180,4,-4,1.0,,,,,0,0,0,0,1,36,92,24,,,,,,,,,,,,,,,,,,,,,,,397.3729170000297,None,397.3729170000297,None,396.8725783000118,None,j,1.2032977999770083,397.3729170000297,None,,,,,,,r,001,2021_Jul_10_1642,toilet,2021.1.3,99.89261545799386,
180,180,4,-4,1.0,,,,,0,0,0,0,1,37,93,38,,,,,,,,,,,,,,,,,,,,,,,399.5944323000149,None,399.5944323000149,None,399.094083300035,None,j,1.3659629999892786,399.5944323000149,None,,,,,,,r,001,2021_Jul_10_1642,toilet,2021.1.3,99.89261545799386,
0,0,-4,4,0.94,,,,,0,0,0,0,1,38,94,1,,,,,,,,,,,,,,,,,,,,,,,401.9761235000333,None,401.9761235000333,None,401.47570160002215,None,f,0.5682299000327475,401.9761235000333,None,,,,,,,r,001,2021_Jul_10_1642,toilet,2021.1.3,99.89261545799386,
180,180,-4,4,1.03,,,,,0,0,0,0,1,39,95,32,,,,,,,,,,,,,,,,,,,,,,,403.557108100038,None,403.557108100038,None,403.056808000023,None,j,0.5551701000076719,403.557108100038,None,,,,,,,r,001,2021_Jul_10_1642,toilet,2021.1.3,99.89261545799386,
0,0,4,-4,0.97,,,,,0,0,0,0,1,40,96,9,,,,,,,,,,,,,,,,,,,,,,,405.11817229998996,None,405.11817229998996,None,404.6178288999945,None,j,0.5460440999595448,405.11817229998996,None,,,,,,,r,001,2021_Jul_10_1642,toilet,2021.1.3,99.89261545799386,
180,0,4,-4,0.97,,,,,0,0,0,0,1,41,97,51,,,,,,,,,,,,,,,,,,,,,,,406.66922680003336,None,406.66922680003336,None,406.16885630000615,None,j,0.6271408000029624,406.66922680003336,None,,,,,,,r,001,2021_Jul_10_1642,toilet,2021.1.3,99.89261545799386,
0,0,-4,4,1.0,,,,,0,0,0,0,1,42,98,3,,,,,,,,,,,,,,,,,,,,,,,408.31033330003265,None,408.31033330003265,None,407.81007460004184,None,f,0.6179324999684468,408.31033330003265,None,,,,,,,r,001,2021_Jul_10_1642,toilet,2021.1.3,99.89261545799386,
180,0,-4,4,1.03,,,,,0,0,0,0,1,43,99,46,,,,,,,,,,,,,,,,,,,,,,,409.9315287999925,None,409.9315287999925,None,409.4311832000385,None,f,0.5806771999923512,409.9315287999925,None,,,,,,,r,001,2021_Jul_10_1642,toilet,2021.1.3,99.89261545799386,
0,0,4,-4,0.85,,,,,0,0,0,0,1,44,100,7,,,,,,,,,,,,,,,,,,,,,,,411.51250700000674,None,411.51250700000674,None,411.012163300009,None,j,0.43970899999840185,411.51250700000674,None,,,,,,,r,001,2021_Jul_10_1642,toilet,2021.1.3,99.89261545799386,
180,0,4,-4,0.94,,,,,0,0,0,0,1,45,101,50,,,,,,,,,,,,,,,,,,,,,,,412.95348319999175,None,412.95348319999175,None,412.4531424000161,None,j,3.3189894999959506,412.95348319999175,None,,,,,,,r,001,2021_Jul_10_1642,toilet,2021.1.3,99.89261545799386,
0,0,4,-4,1.0,,,,,0,0,0,0,1,46,102,10,,,,,,,,,,,,,,,,,,,,,,,417.28651679999894,None,417.28651679999894,None,416.7861087000347,None,f,0.9857672000071034,417.28651679999894,None,,,,,,,r,001,2021_Jul_10_1642,toilet,2021.1.3,99.89261545799386,
0,180,-4,4,1.15,,,,,0,0,0,0,1,47,103,20,,,,,,,,,,,,,,,,,,,,,,,419.2777691000374,None,419.2777691000374,None,418.7774320000317,None,j,0.5145240999991074,419.2777691000374,None,,,,,,,r,001,2021_Jul_10_1642,toilet,2021.1.3,99.89261545799386,
0,180,4,-4,1.03,,,,,0,0,0,0,1,48,104,25,,,,,,,,,,,,,,,,,,,,,,,420.79879850003636,None,420.79879850003636,None,420.2984631000436,None,f,0.5615069000050426,420.79879850003636,None,,,,,,,r,001,2021_Jul_10_1642,toilet,2021.1.3,99.89261545799386,
180,0,-4,4,0.94,,,,,0,0,0,0,1,49,105,43,,,,,,,,,,,,,,,,,,,,,,,422.3698671000311,None,422.3698671000311,None,421.86953920003725,None,f,0.4625063000130467,422.3698671000311,None,,,,,,,r,001,2021_Jul_10_1642,toilet,2021.1.3,99.89261545799386,
180,0,4,-4,1.03,,,,,0,0,0,0,1,50,106,53,,,,,,,,,,,,,,,,,,,,,,,423.85096519999206,None,423.85096519999206,None,423.350531700009,None,f,1.5412260000011884,423.85096519999206,None,,,,,,,r,001,2021_Jul_10_1642,toilet,2021.1.3,99.89261545799386,
180,180,4,-4,0.94,,,,,0,0,0,0,1,51,107,36,,,,,,,,,,,,,,,,,,,,,,,426.39259380003205,None,426.39259380003205,None,425.8922286000452,None,j,1.3677840000018477,426.39259380003205,None,,,,,,,r,001,2021_Jul_10_1642,toilet,2021.1.3,99.89261545799386,
180,180,-4,4,0.94,,,,,0,0,0,0,1,52,108,29,,,,,,,,,,,,,,,,,,,,,,,428.77419030002784,None,428.77419030002784,None,428.27386820001993,None,f,0.5700274999835528,428.77419030002784,None,,,,,,,r,001,2021_Jul_10_1642,toilet,2021.1.3,99.89261545799386,
180,180,4,-4,1.03,,,,,0,0,0,0,1,53,109,39,,,,,,,,,,,,,,,,,,,,,,,430.34536490001483,None,430.34536490001483,None,429.84493120003026,None,f,0.5508571999962442,430.34536490001483,None,,,,,,,r,001,2021_Jul_10_1642,toilet,2021.1.3,99.89261545799386,
0,0,-4,4,0.85,,,,,0,0,0,0,1,54,110,0,,,,,,,,,,,,,,,,,,,,,,,431.8963372000144,None,431.8963372000144,None,431.3960875000339,None,f,0.6478370999684557,431.8963372000144,None,,,,,,,r,001,2021_Jul_10_1642,toilet,2021.1.3,99.89261545799386,
180,180,4,-4,0.97,,,,,0,0,0,0,1,55,111,37,,,,,,,,,,,,,,,,,,,,,,,433.5474427000154,None,433.5474427000154,None,433.0471078000264,None,j,0.548753899987787,433.5474427000154,None,,,,,,,r,001,2021_Jul_10_1642,toilet,2021.1.3,99.89261545799386,
,,,,,,,,,0,0,0,0,,,,,,,,,,,,,,,,,,,,,,,,,,,,,,,,,,,,,434.10782590002054,None,space,2.8684694999828935,434.10782590002054,None,r,001,2021_Jul_10_1642,toilet,2021.1.3,99.89261545799386,
0,0,4,-4,1.15,,,,,1,0,1,0,0,0,0,13,,,,,,,,,,,,,,,,,436.9897928000428,None,space,1.2023978000506759,436.9897928000428,None,439.21136790001765,None,439.21136790001765,None,438.71104449999984,None,f,0.46888709999620914,439.21136790001765,None,,,,,,,r,001,2021_Jul_10_1642,toilet,2021.1.3,99.89261545799386,
180,0,-4,4,1.03,,,,,1,0,1,0,0,1,1,46,,,,,,,,,,,,,,,,,,,,,,,440.6923035000218,None,440.6923035000218,None,440.1919742000173,None,j,0.4918906000093557,440.6923035000218,None,,,,,,,r,001,2021_Jul_10_1642,toilet,2021.1.3,99.89261545799386,
0,0,-4,4,1.0,,,,,1,0,1,0,0,2,2,3,,,,,,,,,,,,,,,,,,,,,,,442.1933050000225,None,442.1933050000225,None,441.6929720999906,None,j,1.3430019000079483,442.1933050000225,None,,,,,,,r,001,2021_Jul_10_1642,toilet,2021.1.3,99.89261545799386,
180,180,-4,4,1.15,,,,,1,0,1,0,0,3,3,34,,,,,,,,,,,,,,,,,,,,,,,444.5549113000161,None,444.5549113000161,None,444.0545781000401,None,j,0.4374970000353642,444.5549113000161,None,,,,,,,r,001,2021_Jul_10_1642,toilet,2021.1.3,99.89261545799386,
180,180,-4,4,0.97,,,,,1,0,1,0,0,4,4,30,,,,,,,,,,,,,,,,,,,,,,,446.00589700002456,None,446.00589700002456,None,445.5056447000243,None,f,0.4903875999734737,446.00589700002456,None,,,,,,,r,001,2021_Jul_10_1642,toilet,2021.1.3,99.89261545799386,
180,0,-4,4,0.85,,,,,1,0,1,0,0,5,5,42,,,,,,,,,,,,,,,,,,,,,,,447.5069083000417,None,447.5069083000417,None,447.0066499999957,None,f,0.4292855999665335,447.5069083000417,None,,,,,,,r,001,2021_Jul_10_1642,toilet,2021.1.3,99.89261545799386,
180,180,-4,4,1.0,,,,,1,0,1,0,0,6,6,31,,,,,,,,,,,,,,,,,,,,,,,448.93786050000926,None,448.93786050000926,None,448.437537299993,None,f,0.6623684000223875,448.93786050000926,None,,,,,,,r,001,2021_Jul_10_1642,toilet,2021.1.3,99.89261545799386,
0,0,-4,4,1.15,,,,,1,0,1,0,0,7,7,6,,,,,,,,,,,,,,,,,,,,,,,450.61901940003736,None,450.61901940003736,None,450.1186769999913,None,j,0.3892391999834217,450.61901940003736,None,,,,,,,r,001,2021_Jul_10_1642,toilet,2021.1.3,99.89261545799386,
0,0,4,-4,0.94,,,,,1,0,1,0,0,8,8,8,,,,,,,,,,,,,,,,,,,,,,,452.00996420002775,None,452.00996420002775,None,451.50962349999463,None,j,0.7903528999886476,452.00996420002775,None,,,,,,,r,001,2021_Jul_10_1642,toilet,2021.1.3,99.89261545799386,
180,180,4,-4,0.85,,,,,1,0,1,0,0,9,9,35,,,,,,,,,,,,,,,,,,,,,,,453.81125490000704,None,453.81125490000704,None,453.310842100007,None,j,0.4771910000126809,453.81125490000704,None,,,,,,,r,001,2021_Jul_10_1642,toilet,2021.1.3,99.89261545799386,
180,180,4,-4,1.0,,,,,1,0,1,0,0,10,10,38,,,,,,,,,,,,,,,,,,,,,,,455.302194399992,None,455.302194399992,None,454.80185410002014,None,f,0.79406739998376,455.302194399992,None,,,,,,,r,001,2021_Jul_10_1642,toilet,2021.1.3,99.89261545799386,
180,180,4,-4,1.06,,,,,1,0,1,0,0,11,11,40,,,,,,,,,,,,,,,,,,,,,,,457.10341360000893,None,457.10341360000893,None,456.60307330003707,None,f,0.5289181999978609,457.10341360000893,None,,,,,,,r,001,2021_Jul_10_1642,toilet,2021.1.3,99.89261545799386,
0,0,4,-4,1.06,,,,,1,0,1,0,0,12,12,12,,,,,,,,,,,,,,,,,,,,,,,458.64446129999124,None,458.64446129999124,None,458.14412440004526,None,f,0.6198746999725699,458.64446129999124,None,,,,,,,r,001,2021_Jul_10_1642,toilet,2021.1.3,99.89261545799386,
0,180,4,-4,1.15,,,,,1,0,1,0,0,13,13,27,,,,,,,,,,,,,,,,,,,,,,,460.2756542999996,None,460.2756542999996,None,459.77522720000707,None,f,0.4766519999830052,460.2756542999996,None,,,,,,,r,001,2021_Jul_10_1642,toilet,2021.1.3,99.89261545799386,
0,0,4,-4,1.03,,,,,1,0,1,0,0,14,14,11,,,,,,,,,,,,,,,,,,,,,,,461.75664320000215,None,461.75664320000215,None,461.2562281000428,None,j,0.4675355000072159,461.75664320000215,None,,,,,,,r,001,2021_Jul_10_1642,toilet,2021.1.3,99.89261545799386,
180,0,-4,4,1.0,,,,,1,0,1,0,0,15,15,45,,,,,,,,,,,,,,,,,,,,,,,463.2275669000228,None,463.2275669000228,None,462.72722390003037,None,j,1.4447551000048406,463.2275669000228,None,,,,,,,r,001,2021_Jul_10_1642,toilet,2021.1.3,99.89261545799386,
180,0,-4,4,1.06,,,,,1,0,1,0,0,16,16,47,,,,,,,,,,,,,,,,,,,,,,,465.6792383000138,None,465.6792383000138,None,465.17888820002554,None,j,0.9771551000303589,465.6792383000138,None,,,,,,,r,001,2021_Jul_10_1642,toilet,2021.1.3,99.89261545799386,
0,0,-4,4,0.94,,,,,1,0,1,0,0,17,17,1,,,,,,,,,,,,,,,,,,,,,,,467.6706179000321,None,467.6706179000321,None,467.17024930001935,None,f,0.5217095999978483,467.6706179000321,None,,,,,,,r,001,2021_Jul_10_1642,toilet,2021.1.3,99.89261545799386,
180,0,4,-4,1.06,,,,,1,0,1,0,0,18,18,54,,,,,,,,,,,,,,,,,,,,,,,469.20169830002123,None,469.20169830002123,None,468.7013786000316,None,f,2.7345898000057787,469.20169830002123,None,,,,,,,r,001,2021_Jul_10_1642,toilet,2021.1.3,99.89261545799386,
0,180,-4,4,0.85,,,,,1,0,1,0,0,19,19,14,,,,,,,,,,,,,,,,,,,,,,,472.94416030001594,None,472.94416030001594,None,472.4438148000045,None,f,0.5600711000151932,472.94416030001594,None,,,,,,,r,001,2021_Jul_10_1642,toilet,2021.1.3,99.89261545799386,
0,180,-4,4,0.94,,,,,1,0,1,0,0,20,20,15,,,,,,,,,,,,,,,,,,,,,,,474.5152983000153,None,474.5152983000153,None,474.014885600016,None,j,1.1968547999858856,474.5152983000153,None,,,,,,,r,001,2021_Jul_10_1642,toilet,2021.1.3,99.89261545799386,
0,0,4,-4,0.97,,,,,1,0,1,0,0,21,21,9,,,,,,,,,,,,,,,,,,,,,,,476.71672279998893,None,476.71672279998893,None,476.2164584000129,None,j,0.947414199996274,476.71672279998893,None,,,,,,,r,001,2021_Jul_10_1642,toilet,2021.1.3,99.89261545799386,
180,180,-4,4,0.94,,,,,1,0,1,0,0,22,22,29,,,,,,,,,,,,,,,,,,,,,,,478.6680378000019,None,478.6680378000019,None,478.167692899995,None,f,0.5161394000169821,478.6680378000019,None,,,,,,,r,001,2021_Jul_10_1642,toilet,2021.1.3,99.89261545799386,
180,0,-4,4,1.15,,,,,1,0,1,0,0,23,23,48,,,,,,,,,,,,,,,,,,,,,,,480.18907090002904,None,480.18907090002904,None,479.6887266000267,None,j,0.4511904999963008,480.18907090002904,None,,,,,,,r,001,2021_Jul_10_1642,toilet,2021.1.3,99.89261545799386,
0,0,4,-4,1.0,,,,,1,0,1,0,0,24,24,10,,,,,,,,,,,,,,,,,,,,,,,481.650139400037,None,481.650139400037,None,481.1497218000004,None,f,2.3500804000068456,481.650139400037,None,,,,,,,r,001,2021_Jul_10_1642,toilet,2021.1.3,99.89261545799386,
180,0,4,-4,1.0,,,,,1,0,1,0,0,25,25,52,,,,,,,,,,,,,,,,,,,,,,,485.0123418000294,None,485.0123418000294,None,484.5120044000214,None,j,2.8919087999965996,485.0123418000294,None,,,,,,,r,001,2021_Jul_10_1642,toilet,2021.1.3,99.89261545799386,
0,180,4,-4,1.06,,,,,1,0,1,0,0,26,26,26,,,,,,,,,,,,,,,,,,,,,,,488.9149804000044,None,488.9149804000044,None,488.41463990003103,None,f,0.5733815000276081,488.9149804000044,None,,,,,,,r,001,2021_Jul_10_1642,toilet,2021.1.3,99.89261545799386,
0,0,-4,4,0.85,,,,,1,0,1,0,0,27,27,0,,,,,,,,,,,,,,,,,,,,,,,490.5061637000181,None,490.5061637000181,None,490.00571930001024,None,f,0.5180986999766901,490.5061637000181,None,,,,,,,r,001,2021_Jul_10_1642,toilet,2021.1.3,99.89261545799386,
0,180,4,-4,1.03,,,,,1,0,1,0,0,28,28,25,,,,,,,,,,,,,,,,,,,,,,,492.03709580004215,None,492.03709580004215,None,491.5367607999942,None,j,1.0030891000060365,492.03709580004215,None,,,,,,,r,001,2021_Jul_10_1642,toilet,2021.1.3,99.89261545799386,
180,180,4,-4,1.15,,,,,1,0,1,0,0,29,29,41,,,,,,,,,,,,,,,,,,,,,,,494.0484417999978,None,494.0484417999978,None,493.5481202999945,None,f,0.5118519000243396,494.0484417999978,None,,,,,,,r,001,2021_Jul_10_1642,toilet,2021.1.3,99.89261545799386,
0,0,-4,4,0.97,,,,,1,0,1,0,0,30,30,2,,,,,,,,,,,,,,,,,,,,,,,495.56949140003417,None,495.56949140003417,None,495.0691526000155,None,f,1.0707391999894753,495.56949140003417,None,,,,,,,r,001,2021_Jul_10_1642,toilet,2021.1.3,99.89261545799386,
180,180,4,-4,1.03,,,,,1,0,1,0,0,31,31,39,,,,,,,,,,,,,,,,,,,,,,,497.6509143000003,None,497.6509143000003,None,497.15064150001854,None,f,0.5413638000027277,497.6509143000003,None,,,,,,,r,001,2021_Jul_10_1642,toilet,2021.1.3,99.89261545799386,
0,180,-4,4,1.06,,,,,1,0,1,0,0,32,32,19,,,,,,,,,,,,,,,,,,,,,,,499.1919504000107,None,499.1919504000107,None,498.7016554000438,None,j,0.5202233000309207,499.1919504000107,None,,,,,,,r,001,2021_Jul_10_1642,toilet,2021.1.3,99.89261545799386,
180,0,-4,4,0.97,,,,,1,0,1,0,0,33,33,44,,,,,,,,,,,,,,,,,,,,,,,500.7129616000457,None,500.7129616000457,None,500.21264030004386,None,f,0.5833086999482475,500.7129616000457,None,,,,,,,r,001,2021_Jul_10_1642,toilet,2021.1.3,99.89261545799386,
180,180,-4,4,0.85,,,,,1,0,1,0,0,34,34,28,,,,,,,,,,,,,,,,,,,,,,,502.3040600999957,None,502.3040600999957,None,501.8037269000197,None,f,0.41631319996668026,502.3040600999957,None,,,,,,,r,001,2021_Jul_10_1642,toilet,2021.1.3,99.89261545799386,
0,180,-4,4,1.03,,,,,1,0,1,0,0,35,35,18,,,,,,,,,,,,,,,,,,,,,,,503.7350311999908,None,503.7350311999908,None,503.2347183999955,None,j,0.3771625999943353,503.7350311999908,None,,,,,,,r,001,2021_Jul_10_1642,toilet,2021.1.3,99.89261545799386,
0,0,4,-4,0.85,,,,,1,0,1,0,0,36,36,7,,,,,,,,,,,,,,,,,,,,,,,505.11605130002135,None,505.11605130002135,None,504.61571879999246,None,j,0.4522093999548815,505.11605130002135,None,,,,,,,r,001,2021_Jul_10_1642,toilet,2021.1.3,99.89261545799386,
180,180,4,-4,0.94,,,,,1,0,1,0,0,37,37,36,,,,,,,,,,,,,,,,,,,,,,,506.5769535000436,None,506.5769535000436,None,506.07670060003875,None,j,0.5272269999841228,506.5769535000436,None,,,,,,,r,001,2021_Jul_10_1642,toilet,2021.1.3,99.89261545799386,
180,0,4,-4,0.85,,,,,1,0,1,0,0,38,38,49,,,,,,,,,,,,,,,,,,,,,,,508.10799530002987,None,508.10799530002987,None,507.6076530000428,None,j,0.4202712000114843,508.10799530002987,None,,,,,,,r,001,2021_Jul_10_1642,toilet,2021.1.3,99.89261545799386,
0,180,4,-4,0.94,,,,,1,0,1,0,0,39,39,22,,,,,,,,,,,,,,,,,,,,,,,509.53896279999753,None,509.53896279999753,None,509.0386208000127,None,j,0.6054298000526614,509.53896279999753,None,,,,,,,r,001,2021_Jul_10_1642,toilet,2021.1.3,99.89261545799386,
180,180,4,-4,0.97,,,,,1,0,1,0,0,40,40,37,,,,,,,,,,,,,,,,,,,,,,,511.17006900004344,None,511.17006900004344,None,510.66972589999205,None,j,0.8464270000113174,511.17006900004344,None,,,,,,,r,001,2021_Jul_10_1642,toilet,2021.1.3,99.89261545799386,
0,180,-4,4,1.15,,,,,1,0,1,0,0,41,41,20,,,,,,,,,,,,,,,,,,,,,,,513.0314032000024,None,513.0314032000024,None,512.5310634000343,None,j,0.4088600000250153,513.0314032000024,None,,,,,,,r,001,2021_Jul_10_1642,toilet,2021.1.3,99.89261545799386,
0,0,-4,4,1.03,,,,,1,0,1,0,0,42,42,4,,,,,,,,,,,,,,,,,,,,,,,514.452298499993,None,514.452298499993,None,513.9519688000437,None,j,2.1878738999948837,514.452298499993,None,,,,,,,r,001,2021_Jul_10_1642,toilet,2021.1.3,99.89261545799386,
180,0,4,-4,0.94,,,,,1,0,1,0,0,43,43,50,,,,,,,,,,,,,,,,,,,,,,,517.6544972000411,None,517.6544972000411,None,517.1541331000044,None,j,1.353876199980732,517.6544972000411,None,,,,,,,r,001,2021_Jul_10_1642,toilet,2021.1.3,99.89261545799386,
0,180,4,-4,0.97,,,,,1,0,1,0,0,44,44,23,,,,,,,,,,,,,,,,,,,,,,,520.0261394000263,None,520.0261394000263,None,519.525820000039,None,j,2.406051900004968,520.0261394000263,None,,,,,,,r,001,2021_Jul_10_1642,toilet,2021.1.3,99.89261545799386,
180,0,4,-4,1.03,,,,,1,0,1,0,0,45,45,53,,,,,,,,,,,,,,,,,,,,,,,523.4383831000305,None,523.4383831000305,None,522.9380461000255,None,f,1.5859379000030458,523.4383831000305,None,,,,,,,r,001,2021_Jul_10_1642,toilet,2021.1.3,99.89261545799386,
180,0,-4,4,0.94,,,,,1,0,1,0,0,46,46,43,,,,,,,,,,,,,,,,,,,,,,,526.0501578000258,None,526.0501578000258,None,525.5498332999996,None,f,0.9901399000082165,526.0501578000258,None,,,,,,,r,001,2021_Jul_10_1642,toilet,2021.1.3,99.89261545799386,
0,0,-4,4,1.06,,,,,1,0,1,0,0,47,47,5,,,,,,,,,,,,,,,,,,,,,,,528.0515514000435,None,528.0515514000435,None,527.5512627999997,None,j,0.5406208999920636,528.0515514000435,None,,,,,,,r,001,2021_Jul_10_1642,toilet,2021.1.3,99.89261545799386,
180,180,-4,4,1.06,,,,,1,0,1,0,0,48,48,33,,,,,,,,,,,,,,,,,,,,,,,529.5925870999927,None,529.5925870999927,None,529.0922163000214,None,j,0.5516066999989562,529.5925870999927,None,,,,,,,r,001,2021_Jul_10_1642,toilet,2021.1.3,99.89261545799386,
180,0,4,-4,1.15,,,,,1,0,1,0,0,49,49,55,,,,,,,,,,,,,,,,,,,,,,,531.1436090000207,None,531.1436090000207,None,530.6432710000081,None,f,0.5047579000238329,531.1436090000207,None,,,,,,,r,001,2021_Jul_10_1642,toilet,2021.1.3,99.89261545799386,
0,180,-4,4,0.97,,,,,1,0,1,0,0,50,50,16,,,,,,,,,,,,,,,,,,,,,,,532.6646475000307,None,532.6646475000307,None,532.1642997000017,None,f,3.447560500004329,532.6646475000307,None,,,,,,,r,001,2021_Jul_10_1642,toilet,2021.1.3,99.89261545799386,
180,180,-4,4,1.03,,,,,1,0,1,0,0,51,51,32,,,,,,,,,,,,,,,,,,,,,,,537.1176651000278,None,537.1176651000278,None,536.6173187000095,None,j,0.5465883999713697,537.1176651000278,None,,,,,,,r,001,2021_Jul_10_1642,toilet,2021.1.3,99.89261545799386,
0,180,4,-4,0.85,,,,,1,0,1,0,0,52,52,21,,,,,,,,,,,,,,,,,,,,,,,538.6687208000221,None,538.6687208000221,None,538.16837020003,None,j,0.45151839999016374,538.6687208000221,None,,,,,,,r,001,2021_Jul_10_1642,toilet,2021.1.3,99.89261545799386,
0,180,-4,4,1.0,,,,,1,0,1,0,0,53,53,17,,,,,,,,,,,,,,,,,,,,,,,540.1297041000216,None,540.1297041000216,None,539.6293671000167,None,f,1.6306253999937326,540.1297041000216,None,,,,,,,r,001,2021_Jul_10_1642,toilet,2021.1.3,99.89261545799386,
0,180,4,-4,1.0,,,,,1,0,1,0,0,54,54,24,,,,,,,,,,,,,,,,,,,,,,,542.7715077000321,None,542.7715077000321,None,542.2712399000302,None,j,1.0366710999514908,542.7715077000321,None,,,,,,,r,001,2021_Jul_10_1642,toilet,2021.1.3,99.89261545799386,
180,0,4,-4,0.97,,,,,1,0,1,0,0,55,55,51,,,,,,,,,,,,,,,,,,,,,,,544.8128929000231,None,544.8128929000231,None,544.3125631000148,None,j,1.0433697000262327,544.8128929000231,None,,,,,,,r,001,2021_Jul_10_1642,toilet,2021.1.3,99.89261545799386,
180,0,-4,4,0.94,,,,,1,0,1,0,1,0,56,43,,,,,,,,,,,,,,,,,,,,,,,546.8742782000336,None,546.8742782000336,None,546.3739370999974,None,j,1.9419565999996848,546.8742782000336,None,,,,,,,r,001,2021_Jul_10_1642,toilet,2021.1.3,99.89261545799386,
0,180,4,-4,0.94,,,,,1,0,1,0,1,1,57,22,,,,,,,,,,,,,,,,,,,,,,,549.8263537000166,None,549.8263537000166,None,549.3259401000105,None,j,2.445798399974592,549.8263537000166,None,,,,,,,r,001,2021_Jul_10_1642,toilet,2021.1.3,99.89261545799386,
180,0,-4,4,1.03,,,,,1,0,1,0,1,2,58,46,,,,,,,,,,,,,,,,,,,,,,,553.2786181000411,None,553.2786181000411,None,552.7782780000125,None,j,2.625724399986211,553.2786181000411,None,,,,,,,r,001,2021_Jul_10_1642,toilet,2021.1.3,99.89261545799386,
180,0,4,-4,1.03,,,,,1,0,1,0,1,3,59,53,,,,,,,,,,,,,,,,,,,,,,,556.9311851999955,None,556.9311851999955,None,556.4308411999955,None,f,1.5649711000151,556.9311851999955,None,,,,,,,r,001,2021_Jul_10_1642,toilet,2021.1.3,99.89261545799386,
0,0,4,-4,1.15,,,,,1,0,1,0,1,4,60,13,,,,,,,,,,,,,,,,,,,,,,,559.5028335000388,None,559.5028335000388,None,559.0024949000217,None,f,0.9614064999623224,559.5028335000388,None,,,,,,,r,001,2021_Jul_10_1642,toilet,2021.1.3,99.89261545799386,
180,180,-4,4,1.06,,,,,1,0,1,0,1,5,61,33,,,,,,,,,,,,,,,,,,,,,,,561.4741771999979,None,561.4741771999979,None,560.973829900031,None,j,0.6220399999874644,561.4741771999979,None,,,,,,,r,001,2021_Jul_10_1642,toilet,2021.1.3,99.89261545799386,
180,180,4,-4,1.03,,,,,1,0,1,0,1,6,62,39,,,,,,,,,,,,,,,,,,,,,,,563.1053527999902,None,563.1053527999902,None,562.6049400999909,None,f,3.406785300001502,563.1053527999902,None,,,,,,,r,001,2021_Jul_10_1642,toilet,2021.1.3,99.89261545799386,
180,180,4,-4,1.0,,,,,1,0,1,0,1,7,63,38,,,,,,,,,,,,,,,,,,,,,,,567.5182676000404,None,567.5182676000404,None,567.017934500007,None,f,1.8260361999855377,567.5182676000404,None,,,,,,,r,001,2021_Jul_10_1642,toilet,2021.1.3,99.89261545799386,
0,180,-4,4,1.06,,,,,1,0,1,0,1,8,64,19,,,,,,,,,,,,,,,,,,,,,,,570.3602095000097,None,570.3602095000097,None,569.8598590000183,None,j,0.6320592000265606,570.3602095000097,None,,,,,,,r,001,2021_Jul_10_1642,toilet,2021.1.3,99.89261545799386,
0,180,-4,4,0.85,,,,,1,0,1,0,1,9,65,14,,,,,,,,,,,,,,,,,,,,,,,572.0013897000463,None,572.0013897000463,None,571.5010464999941,None,f,0.6867822000058368,572.0013897000463,None,,,,,,,r,001,2021_Jul_10_1642,toilet,2021.1.3,99.89261545799386,
180,0,-4,4,1.0,,,,,1,0,1,0,1,10,66,45,,,,,,,,,,,,,,,,,,,,,,,573.6924519000459,None,573.6924519000459,None,573.1921193000162,None,j,1.4917938999715261,573.6924519000459,None,,,,,,,r,001,2021_Jul_10_1642,toilet,2021.1.3,99.89261545799386,
0,180,-4,4,0.97,,,,,1,0,1,0,1,11,67,16,,,,,,,,,,,,,,,,,,,,,,,576.1841439999989,None,576.1841439999989,None,575.6838042000309,None,f,3.3199796000262722,576.1841439999989,None,,,,,,,r,001,2021_Jul_10_1642,toilet,2021.1.3,99.89261545799386,
180,180,4,-4,0.85,,,,,1,0,1,0,1,12,68,35,,,,,,,,,,,,,,,,,,,,,,,580.5070783999981,None,580.5070783999981,None,580.0067358000088,None,j,0.5651736999861896,580.5070783999981,None,,,,,,,r,001,2021_Jul_10_1642,toilet,2021.1.3,99.89261545799386,
180,0,-4,4,1.06,,,,,1,0,1,0,1,13,69,47,,,,,,,,,,,,,,,,,,,,,,,582.0781365000294,None,582.0781365000294,None,581.5777987000183,None,j,1.090088900004048,582.0781365000294,None,,,,,,,r,001,2021_Jul_10_1642,toilet,2021.1.3,99.89261545799386,
0,0,-4,4,1.0,,,,,1,0,1,0,1,14,70,3,,,,,,,,,,,,,,,,,,,,,,,584.1795627000392,None,584.1795627000392,None,583.6792263000389,None,j,1.1807308999705128,584.1795627000392,None,,,,,,,r,001,2021_Jul_10_1642,toilet,2021.1.3,99.89261545799386,
0,0,4,-4,1.0,,,,,1,0,1,0,1,15,71,10,,,,,,,,,,,,,,,,,,,,,,,586.3711449000402,None,586.3711449000402,None,585.870722600026,None,j,0.9731491000275128,586.3711449000402,None,,,,,,,r,001,2021_Jul_10_1642,toilet,2021.1.3,99.89261545799386,
0,0,4,-4,0.94,,,,,1,0,1,0,1,16,72,8,,,,,,,,,,,,,,,,,,,,,,,588.3623961000121,None,588.3623961000121,None,587.8620569999912,None,j,0.6457872000173666,588.3623961000121,None,,,,,,,r,001,2021_Jul_10_1642,toilet,2021.1.3,99.89261545799386,
0,180,-4,4,0.94,,,,,1,0,1,0,1,17,73,15,,,,,,,,,,,,,,,,,,,,,,,590.0135516000446,None,590.0135516000446,None,589.513183800038,None,f,0.946740299987141,590.0135516000446,None,,,,,,,r,001,2021_Jul_10_1642,toilet,2021.1.3,99.89261545799386,
0,180,4,-4,1.03,,,,,1,0,1,0,1,18,74,25,,,,,,,,,,,,,,,,,,,,,,,591.9748440000112,None,591.9748440000112,None,591.4745090000215,None,f,0.9535146999987774,591.9748440000112,None,,,,,,,r,001,2021_Jul_10_1642,toilet,2021.1.3,99.89261545799386,
180,180,4,-4,0.94,,,,,1,0,1,0,1,19,75,36,,,,,,,,,,,,,,,,,,,,,,,593.9562710000318,None,593.9562710000318,None,593.455853899999,None,j,0.5879160000476986,593.9562710000318,None,,,,,,,r,001,2021_Jul_10_1642,toilet,2021.1.3,99.89261545799386,
0,0,-4,4,0.97,,,,,1,0,1,0,1,20,76,2,,,,,,,,,,,,,,,,,,,,,,,595.5472722999984,None,595.5472722999984,None,595.0469301000121,None,f,3.429102700029034,595.5472722999984,None,,,,,,,r,001,2021_Jul_10_1642,toilet,2021.1.3,99.89261545799386,
180,0,4,-4,0.94,,,,,1,0,1,0,1,21,77,50,,,,,,,,,,,,,,,,,,,,,,,600.0002861000248,None,600.0002861000248,None,599.4999498000252,None,j,1.0719059000257403,600.0002861000248,None,,,,,,,r,001,2021_Jul_10_1642,toilet,2021.1.3,99.89261545799386,
0,0,4,-4,0.97,,,,,1,0,1,0,1,22,78,9,,,,,,,,,,,,,,,,,,,,,,,602.0717254999909,None,602.0717254999909,None,601.5714433999965,None,j,0.5684248000034131,602.0717254999909,None,,,,,,,r,001,2021_Jul_10_1642,toilet,2021.1.3,99.89261545799386,
0,0,4,-4,1.06,,,,,1,0,1,0,1,23,79,12,,,,,,,,,,,,,,,,,,,,,,,603.6427553000394,None,603.6427553000394,None,603.1424152000109,None,f,1.0933777999598533,603.6427553000394,None,,,,,,,r,001,2021_Jul_10_1642,toilet,2021.1.3,99.89261545799386,
0,180,-4,4,1.03,,,,,1,0,1,0,1,24,80,18,,,,,,,,,,,,,,,,,,,,,,,605.7441818999941,None,605.7441818999941,None,605.243843800039,None,j,1.6961113999714144,605.7441818999941,None,,,,,,,r,001,2021_Jul_10_1642,toilet,2021.1.3,99.89261545799386,
0,180,-4,4,1.15,,,,,1,0,1,0,1,25,81,20,,,,,,,,,,,,,,,,,,,,,,,608.4560161000118,None,608.4560161000118,None,607.955761499994,None,j,0.4562572000431828,608.4560161000118,None,,,,,,,r,001,2021_Jul_10_1642,toilet,2021.1.3,99.89261545799386,
180,180,-4,4,0.94,,,,,1,0,1,0,1,26,82,29,,,,,,,,,,,,,,,,,,,,,,,609.927013700013,None,609.927013700013,None,609.426709100022,None,f,0.50510629999917,609.927013700013,None,,,,,,,r,001,2021_Jul_10_1642,toilet,2021.1.3,99.89261545799386,
0,180,4,-4,0.85,,,,,1,0,1,0,1,27,83,21,,,,,,,,,,,,,,,,,,,,,,,611.4380385000259,None,611.4380385000259,None,610.9377045000438,None,j,0.4182077000150457,611.4380385000259,None,,,,,,,r,001,2021_Jul_10_1642,toilet,2021.1.3,99.89261545799386,
180,180,-4,4,1.0,,,,,1,0,1,0,1,28,84,31,,,,,,,,,,,,,,,,,,,,,,,612.8590046000318,None,612.8590046000318,None,612.3586660000146,None,j,1.4292138000018895,612.8590046000318,None,,,,,,,r,001,2021_Jul_10_1642,toilet,2021.1.3,99.89261545799386,
0,180,4,-4,0.97,,,,,1,0,1,0,1,29,85,23,,,,,,,,,,,,,,,,,,,,,,,615.2907564000343,None,615.2907564000343,None,614.7903453999897,None,j,1.0935450000106357,615.2907564000343,None,,,,,,,r,001,2021_Jul_10_1642,toilet,2021.1.3,99.89261545799386,
180,180,4,-4,1.15,,,,,1,0,1,0,1,30,86,41,,,,,,,,,,,,,,,,,,,,,,,617.4020850000088,None,617.4020850000088,None,616.901749600016,None,f,0.6141279000439681,617.4020850000088,None,,,,,,,r,001,2021_Jul_10_1642,toilet,2021.1.3,99.89261545799386,
180,180,-4,4,0.85,,,,,1,0,1,0,1,31,87,28,,,,,,,,,,,,,,,,,,,,,,,619.0231811000267,None,619.0231811000267,None,618.5228468000423,None,f,0.48101930000120774,619.0231811000267,None,,,,,,,r,001,2021_Jul_10_1642,toilet,2021.1.3,99.89261545799386,
0,0,4,-4,1.03,,,,,1,0,1,0,1,32,88,11,,,,,,,,,,,,,,,,,,,,,,,620.5141956000007,None,620.5141956000007,None,620.0138559000334,None,f,2.0782148000434972,620.5141956000007,None,,,,,,,r,001,2021_Jul_10_1642,toilet,2021.1.3,99.89261545799386,
180,180,-4,4,1.15,,,,,1,0,1,0,1,33,89,34,,,,,,,,,,,,,,,,,,,,,,,623.6063697999925,None,623.6063697999925,None,623.105963500042,None,j,0.4897965000127442,623.6063697999925,None,,,,,,,r,001,2021_Jul_10_1642,toilet,2021.1.3,99.89261545799386,
0,0,-4,4,1.15,,,,,1,0,1,0,1,34,90,6,,,,,,,,,,,,,,,,,,,,,,,625.1073059000191,None,625.1073059000191,None,624.6069727000431,None,j,0.60485050000716,625.1073059000191,None,,,,,,,r,001,2021_Jul_10_1642,toilet,2021.1.3,99.89261545799386,
0,180,4,-4,1.0,,,,,1,0,1,0,1,35,91,24,,,,,,,,,,,,,,,,,,,,,,,626.7184036000399,None,626.7184036000399,None,626.2180734000285,None,j,1.87386679998599,626.7184036000399,None,,,,,,,r,001,2021_Jul_10_1642,toilet,2021.1.3,99.89261545799386,
180,0,4,-4,1.15,,,,,1,0,1,0,1,36,92,55,,,,,,,,,,,,,,,,,,,,,,,629.6103651000303,None,629.6103651000303,None,629.1100248000002,None,f,0.6778480000211857,629.6103651000303,None,,,,,,,r,001,2021_Jul_10_1642,toilet,2021.1.3,99.89261545799386,
180,180,-4,4,0.97,,,,,1,0,1,0,1,37,93,30,,,,,,,,,,,,,,,,,,,,,,,631.3015424000332,None,631.3015424000332,None,630.801152900036,None,f,1.4185659000067972,631.3015424000332,None,,,,,,,r,001,2021_Jul_10_1642,toilet,2021.1.3,99.89261545799386,
180,0,4,-4,1.06,,,,,1,0,1,0,1,38,94,54,,,,,,,,,,,,,,,,,,,,,,,633.7231480000191,None,633.7231480000191,None,633.2228070000419,None,f,1.30119480000576,633.7231480000191,None,,,,,,,r,001,2021_Jul_10_1642,toilet,2021.1.3,99.89261545799386,
180,0,4,-4,0.85,,,,,1,0,1,0,1,39,95,49,,,,,,,,,,,,,,,,,,,,,,,636.0347143000108,None,636.0347143000108,None,635.5343813000363,None,j,0.5574615999939851,636.0347143000108,None,,,,,,,r,001,2021_Jul_10_1642,toilet,2021.1.3,99.89261545799386,
0,180,4,-4,1.06,,,,,1,0,1,0,1,40,96,26,,,,,,,,,,,,,,,,,,,,,,,637.6057825000025,None,637.6057825000025,None,637.1055391000118,None,f,1.674445000011474,637.6057825000025,None,,,,,,,r,001,2021_Jul_10_1642,toilet,2021.1.3,99.89261545799386,
0,0,-4,4,1.06,,,,,1,0,1,0,1,41,97,5,,,,,,,,,,,,,,,,,,,,,,,640.2875945999986,None,640.2875945999986,None,639.7872559000389,None,j,0.5126326000317931,640.2875945999986,None,,,,,,,r,001,2021_Jul_10_1642,toilet,2021.1.3,99.89261545799386,
0,180,4,-4,1.15,,,,,1,0,1,0,1,42,98,27,,,,,,,,,,,,,,,,,,,,,,,641.8086272000219,None,641.8086272000219,None,641.3082911000238,None,f,0.527644700021483,641.8086272000219,None,,,,,,,r,001,2021_Jul_10_1642,toilet,2021.1.3,99.89261545799386,
0,0,-4,4,1.03,,,,,1,0,1,0,1,43,99,4,,,,,,,,,,,,,,,,,,,,,,,643.3596840000246,None,643.3596840000246,None,642.859339800023,None,j,0.5445451000123285,643.3596840000246,None,,,,,,,r,001,2021_Jul_10_1642,toilet,2021.1.3,99.89261545799386,
180,0,-4,4,0.97,,,,,1,0,1,0,1,44,100,44,,,,,,,,,,,,,,,,,,,,,,,644.9108079000143,None,644.9108079000143,None,644.4204052000423,None,j,1.7933668000041507,644.9108079000143,None,,,,,,,r,001,2021_Jul_10_1642,toilet,2021.1.3,99.89261545799386,
180,0,4,-4,1.0,,,,,1,0,1,0,1,45,101,52,,,,,,,,,,,,,,,,,,,,,,,647.7126309000305,None,647.7126309000305,None,647.2122904999997,None,j,1.0074802999733947,647.7126309000305,None,,,,,,,r,001,2021_Jul_10_1642,toilet,2021.1.3,99.89261545799386,
0,0,4,-4,0.85,,,,,1,0,1,0,1,46,102,7,,,,,,,,,,,,,,,,,,,,,,,649.7239904000307,None,649.7239904000307,None,649.2236534000258,None,j,0.4843414999777451,649.7239904000307,None,,,,,,,r,001,2021_Jul_10_1642,toilet,2021.1.3,99.89261545799386,
180,180,4,-4,1.06,,,,,1,0,1,0,1,47,103,40,,,,,,,,,,,,,,,,,,,,,,,651.2250072000315,None,651.2250072000315,None,650.7246803000453,None,f,0.5991908999858424,651.2250072000315,None,,,,,,,r,001,2021_Jul_10_1642,toilet,2021.1.3,99.89261545799386,
180,180,4,-4,0.97,,,,,1,0,1,0,1,48,104,37,,,,,,,,,,,,,,,,,,,,,,,652.8361878000433,None,652.8361878000433,None,652.3357689999975,None,j,0.5720268000150099,652.8361878000433,None,,,,,,,r,001,2021_Jul_10_1642,toilet,2021.1.3,99.89261545799386,
180,180,-4,4,1.03,,,,,1,0,1,0,1,49,105,32,,,,,,,,,,,,,,,,,,,,,,,654.4171748000081,None,654.4171748000081,None,653.9168332000263,None,j,0.622951400000602,654.4171748000081,None,,,,,,,r,001,2021_Jul_10_1642,toilet,2021.1.3,99.89261545799386,
180,0,4,-4,0.97,,,,,1,0,1,0,1,50,106,51,,,,,,,,,,,,,,,,,,,,,,,656.0482783000334,None,656.0482783000334,None,655.5479423000361,None,j,0.559924500004854,656.0482783000334,None,,,,,,,r,001,2021_Jul_10_1642,toilet,2021.1.3,99.89261545799386,
180,0,-4,4,1.15,,,,,1,0,1,0,1,51,107,48,,,,,,,,,,,,,,,,,,,,,,,657.6193447000114,None,657.6193447000114,None,657.119005799992,None,j,0.620888700010255,657.6193447000114,None,,,,,,,r,001,2021_Jul_10_1642,toilet,2021.1.3,99.89261545799386,
180,0,-4,4,0.85,,,,,1,0,1,0,1,52,108,42,,,,,,,,,,,,,,,,,,,,,,,659.2405314000207,None,659.2405314000207,None,658.7401373999892,None,f,1.9115727999596857,659.2405314000207,None,,,,,,,r,001,2021_Jul_10_1642,toilet,2021.1.3,99.89261545799386,
0,0,-4,4,0.85,,,,,1,0,1,0,1,53,109,0,,,,,,,,,,,,,,,,,,,,,,,662.1524199999985,None,662.1524199999985,None,661.652076600003,None,f,0.6796907000243664,662.1524199999985,None,,,,,,,r,001,2021_Jul_10_1642,toilet,2021.1.3,99.89261545799386,
0,0,-4,4,0.94,,,,,1,0,1,0,1,54,110,1,,,,,,,,,,,,,,,,,,,,,,,663.8335552000208,None,663.8335552000208,None,663.3332179000136,None,f,1.286712900036946,663.8335552000208,None,,,,,,,r,001,2021_Jul_10_1642,toilet,2021.1.3,99.89261545799386,
0,180,-4,4,1.0,,,,,1,0,1,0,1,55,111,17,,,,,,,,,,,,,,,,,,,,,,,666.1451292000129,None,666.1451292000129,None,665.6447828999953,None,j,0.8471227000118233,666.1451292000129,None,,,,,,,r,001,2021_Jul_10_1642,toilet,2021.1.3,99.89261545799386,
,,,,,,,,,1,0,1,0,,,,,,,,,,,,,,,,,,,,,,,,,,,,,,,,,,,,,667.0157658000244,None,space,7.656301399983931,667.0157658000244,None,r,001,2021_Jul_10_1642,toilet,2021.1.3,99.89261545799386,
0,0,4,-4,1.0,,,,,2,0,2,0,0,0,0,10,,,,,,,,,,,,,,,,,674.6809116000077,None,space,4.183231400034856,674.6809116000077,None,679.8844429000164,None,679.8844429000164,None,679.3840970000019,None,j,0.8838711000280455,679.8844429000164,None,,,,,,,r,001,2021_Jul_10_1642,toilet,2021.1.3,99.89261545799386,
0,0,4,-4,1.06,,,,,2,0,2,0,0,1,1,12,,,,,,,,,,,,,,,,,,,,,,,681.7857240000158,None,681.7857240000158,None,681.2854844999965,None,f,0.5504292999976315,681.7857240000158,None,,,,,,,r,001,2021_Jul_10_1642,toilet,2021.1.3,99.89261545799386,
0,0,-4,4,1.03,,,,,2,0,2,0,0,2,2,4,,,,,,,,,,,,,,,,,,,,,,,683.3467830000445,None,683.3467830000445,None,682.846518300008,None,j,0.4933160999789834,683.3467830000445,None,,,,,,,r,001,2021_Jul_10_1642,toilet,2021.1.3,99.89261545799386,
180,180,-4,4,1.06,,,,,2,0,2,0,0,3,3,33,,,,,,,,,,,,,,,,,,,,,,,684.8478003999917,None,684.8478003999917,None,684.3474626000389,None,j,0.5762939999694936,684.8478003999917,None,,,,,,,r,001,2021_Jul_10_1642,toilet,2021.1.3,99.89261545799386,
0,0,4,-4,1.15,,,,,2,0,2,0,0,4,4,13,,,,,,,,,,,,,,,,,,,,,,,686.4288693999988,None,686.4288693999988,None,685.9285334000015,None,f,0.49931730004027486,686.4288693999988,None,,,,,,,r,001,2021_Jul_10_1642,toilet,2021.1.3,99.89261545799386,
180,180,-4,4,0.97,,,,,2,0,2,0,0,5,5,30,,,,,,,,,,,,,,,,,,,,,,,687.9399046000326,None,687.9399046000326,None,687.4395586000173,None,f,1.0202806000015698,687.9399046000326,None,,,,,,,r,001,2021_Jul_10_1642,toilet,2021.1.3,99.89261545799386,
180,180,-4,4,1.15,,,,,2,0,2,0,0,6,6,34,,,,,,,,,,,,,,,,,,,,,,,689.971364099998,None,689.971364099998,None,689.4710302000167,None,j,0.4767524999915622,689.971364099998,None,,,,,,,r,001,2021_Jul_10_1642,toilet,2021.1.3,99.89261545799386,
0,0,-4,4,0.94,,,,,2,0,2,0,0,7,7,1,,,,,,,,,,,,,,,,,,,,,,,691.4522740000393,None,691.4522740000393,None,690.9519405000028,None,f,0.5638330999645405,691.4522740000393,None,,,,,,,r,001,2021_Jul_10_1642,toilet,2021.1.3,99.89261545799386,
0,0,-4,4,1.0,,,,,2,0,2,0,0,8,8,3,,,,,,,,,,,,,,,,,,,,,,,693.0233447999926,None,693.0233447999926,None,692.5230020000017,None,j,0.8007480999804102,693.0233447999926,None,,,,,,,r,001,2021_Jul_10_1642,toilet,2021.1.3,99.89261545799386,
0,180,4,-4,1.15,,,,,2,0,2,0,0,9,9,27,,,,,,,,,,,,,,,,,,,,,,,694.8345672000432,None,694.8345672000432,None,694.3342308000429,None,f,0.5095234999898821,694.8345672000432,None,,,,,,,r,001,2021_Jul_10_1642,toilet,2021.1.3,99.89261545799386,
180,0,-4,4,0.97,,,,,2,0,2,0,0,10,10,44,,,,,,,,,,,,,,,,,,,,,,,696.3456824000459,None,696.3456824000459,None,695.8452550999937,None,f,1.0784826999879442,696.3456824000459,None,,,,,,,r,001,2021_Jul_10_1642,toilet,2021.1.3,99.89261545799386,
0,0,4,-4,1.03,,,,,2,0,2,0,0,11,11,11,,,,,,,,,,,,,,,,,,,,,,,698.4370166000444,None,698.4370166000444,None,697.9366765000159,None,j,0.843186899961438,698.4370166000444,None,,,,,,,r,001,2021_Jul_10_1642,toilet,2021.1.3,99.89261545799386,
180,180,4,-4,0.85,,,,,2,0,2,0,0,12,12,35,,,,,,,,,,,,,,,,,,,,,,,700.2882646000362,None,700.2882646000362,None,699.7879299999913,None,j,0.5920015000156127,700.2882646000362,None,,,,,,,r,001,2021_Jul_10_1642,toilet,2021.1.3,99.89261545799386,
180,0,4,-4,1.03,,,,,2,0,2,0,0,13,13,53,,,,,,,,,,,,,,,,,,,,,,,701.8893514000229,None,701.8893514000229,None,701.3890114999958,None,f,2.3669073000201024,701.8893514000229,None,,,,,,,r,001,2021_Jul_10_1642,toilet,2021.1.3,99.89261545799386,
0,180,-4,4,0.85,,,,,2,0,2,0,0,14,14,14,,,,,,,,,,,,,,,,,,,,,,,705.2716604000307,None,705.2716604000307,None,704.7713879999937,None,f,0.9204344999743626,705.2716604000307,None,,,,,,,r,001,2021_Jul_10_1642,toilet,2021.1.3,99.89261545799386,
0,0,4,-4,0.85,,,,,2,0,2,0,0,15,15,7,,,,,,,,,,,,,,,,,,,,,,,707.1929454000201,None,707.1929454000201,None,706.6926078000106,None,j,0.599292200000491,707.1929454000201,None,,,,,,,r,001,2021_Jul_10_1642,toilet,2021.1.3,99.89261545799386,
180,180,4,-4,1.0,,,,,2,0,2,0,0,16,16,38,,,,,,,,,,,,,,,,,,,,,,,708.8040495000314,None,708.8040495000314,None,708.3036977000302,None,j,0.7161995999631472,708.8040495000314,None,,,,,,,r,001,2021_Jul_10_1642,toilet,2021.1.3,99.89261545799386,
0,0,4,-4,0.94,,,,,2,0,2,0,0,17,17,8,,,,,,,,,,,,,,,,,,,,,,,710.5452244000044,None,710.5452244000044,None,710.0448797999998,None,j,0.5589424000354484,710.5452244000044,None,,,,,,,r,001,2021_Jul_10_1642,toilet,2021.1.3,99.89261545799386,
0,0,-4,4,0.97,,,,,2,0,2,0,0,18,18,2,,,,,,,,,,,,,,,,,,,,,,,712.1163678000448,None,712.1163678000448,None,711.6160350000137,None,j,0.5718254999956116,712.1163678000448,None,,,,,,,r,001,2021_Jul_10_1642,toilet,2021.1.3,99.89261545799386,
180,0,4,-4,0.94,,,,,2,0,2,0,0,19,19,50,,,,,,,,,,,,,,,,,,,,,,,713.6973575000302,None,713.6973575000302,None,713.1970150000416,None,j,1.1987833000021055,713.6973575000302,None,,,,,,,r,001,2021_Jul_10_1642,toilet,2021.1.3,99.89261545799386,
0,180,-4,4,0.97,,,,,2,0,2,0,0,20,20,16,,,,,,,,,,,,,,,,,,,,,,,715.8988531000214,None,715.8988531000214,None,715.3985107000335,None,f,1.1093148000072688,715.8988531000214,None,,,,,,,r,001,2021_Jul_10_1642,toilet,2021.1.3,99.89261545799386,
180,0,4,-4,1.06,,,,,2,0,2,0,0,21,21,54,,,,,,,,,,,,,,,,,,,,,,,718.0202882000012,None,718.0202882000012,None,717.5200343999895,None,f,1.1639881000155583,718.0202882000012,None,,,,,,,r,001,2021_Jul_10_1642,toilet,2021.1.3,99.89261545799386,
180,180,4,-4,0.94,,,,,2,0,2,0,0,22,22,36,,,,,,,,,,,,,,,,,,,,,,,720.2017659000121,None,720.2017659000121,None,719.7014998000232,None,j,0.5983129999949597,720.2017659000121,None,,,,,,,r,001,2021_Jul_10_1642,toilet,2021.1.3,99.89261545799386,
180,0,4,-4,1.15,,,,,2,0,2,0,0,23,23,55,,,,,,,,,,,,,,,,,,,,,,,721.802846000006,None,721.802846000006,None,721.3025104000117,None,f,0.7252883000182919,721.802846000006,None,,,,,,,r,001,2021_Jul_10_1642,toilet,2021.1.3,99.89261545799386,
0,180,-4,4,1.03,,,,,2,0,2,0,0,24,24,18,,,,,,,,,,,,,,,,,,,,,,,723.5340224000392,None,723.5340224000392,None,723.0336833000183,None,j,0.546244699973613,723.5340224000392,None,,,,,,,r,001,2021_Jul_10_1642,toilet,2021.1.3,99.89261545799386,
180,0,4,-4,1.0,,,,,2,0,2,0,0,25,25,52,,,,,,,,,,,,,,,,,,,,,,,725.1050940999994,None,725.1050940999994,None,724.6047522000154,None,j,0.4952201000414789,725.1050940999994,None,,,,,,,r,001,2021_Jul_10_1642,toilet,2021.1.3,99.89261545799386,
180,0,-4,4,0.94,,,,,2,0,2,0,0,26,26,43,,,,,,,,,,,,,,,,,,,,,,,726.6162021000055,None,726.6162021000055,None,726.1158402000437,None,f,3.7358936999808066,726.6162021000055,None,,,,,,,r,001,2021_Jul_10_1642,toilet,2021.1.3,99.89261545799386,
180,180,4,-4,1.15,,,,,2,0,2,0,0,27,27,41,,,,,,,,,,,,,,,,,,,,,,,731.3593255000305,None,731.3593255000305,None,730.8589891000302,None,f,0.8167748000123538,731.3593255000305,None,,,,,,,r,001,2021_Jul_10_1642,toilet,2021.1.3,99.89261545799386,
180,180,-4,4,1.0,,,,,2,0,2,0,0,28,28,31,,,,,,,,,,,,,,,,,,,,,,,733.1806484000408,None,733.1806484000408,None,732.6802266000304,None,j,1.299507400020957,733.1806484000408,None,,,,,,,r,001,2021_Jul_10_1642,toilet,2021.1.3,99.89261545799386,
0,0,4,-4,0.97,,,,,2,0,2,0,0,29,29,9,,,,,,,,,,,,,,,,,,,,,,,735.4921303000301,None,735.4921303000301,None,734.9917954000412,None,j,0.5399678000248969,735.4921303000301,None,,,,,,,r,001,2021_Jul_10_1642,toilet,2021.1.3,99.89261545799386,
180,0,-4,4,0.85,,,,,2,0,2,0,0,30,30,42,,,,,,,,,,,,,,,,,,,,,,,737.0331773000071,None,737.0331773000071,None,736.5328301000409,None,f,0.5509893000125885,737.0331773000071,None,,,,,,,r,001,2021_Jul_10_1642,toilet,2021.1.3,99.89261545799386,
180,0,4,-4,0.97,,,,,2,0,2,0,0,31,31,51,,,,,,,,,,,,,,,,,,,,,,,738.5942303999909,None,738.5942303999909,None,738.0938964000088,None,j,0.47796319995541126,738.5942303999909,None,,,,,,,r,001,2021_Jul_10_1642,toilet,2021.1.3,99.89261545799386,
180,0,-4,4,1.15,,,,,2,0,2,0,0,32,32,48,,,,,,,,,,,,,,,,,,,,,,,740.0852444000193,None,740.0852444000193,None,739.584903000039,None,j,0.5869916999945417,740.0852444000193,None,,,,,,,r,001,2021_Jul_10_1642,toilet,2021.1.3,99.89261545799386,
0,0,-4,4,1.15,,,,,2,0,2,0,0,33,33,6,,,,,,,,,,,,,,,,,,,,,,,741.6863595999894,None,741.6863595999894,None,741.1860666000284,None,j,0.5057095999945886,741.6863595999894,None,,,,,,,r,001,2021_Jul_10_1642,toilet,2021.1.3,99.89261545799386,
180,180,-4,4,1.03,,,,,2,0,2,0,0,34,34,32,,,,,,,,,,,,,,,,,,,,,,,743.1973524999921,None,743.1973524999921,None,742.6970208000275,None,j,0.6267140999552794,743.1973524999921,None,,,,,,,r,001,2021_Jul_10_1642,toilet,2021.1.3,99.89261545799386,
0,180,-4,4,1.0,,,,,2,0,2,0,0,35,35,17,,,,,,,,,,,,,,,,,,,,,,,744.8284585000365,None,744.8284585000365,None,744.3281177000026,None,j,0.7878868000116199,744.8284585000365,None,,,,,,,r,001,2021_Jul_10_1642,toilet,2021.1.3,99.89261545799386,
180,180,4,-4,0.97,,,,,2,0,2,0,0,36,36,37,,,,,,,,,,,,,,,,,,,,,,,746.6296767000458,None,746.6296767000458,None,746.1293382000295,None,f,0.6985647999681532,746.6296767000458,None,,,,,,,r,001,2021_Jul_10_1642,toilet,2021.1.3,99.89261545799386,
180,180,-4,4,0.94,,,,,2,0,2,0,0,37,37,29,,,,,,,,,,,,,,,,,,,,,,,748.3409161000163,None,748.3409161000163,None,747.8404960000189,None,f,0.5392846000031568,748.3409161000163,None,,,,,,,r,001,2021_Jul_10_1642,toilet,2021.1.3,99.89261545799386,
180,0,-4,4,1.0,,,,,2,0,2,0,0,38,38,45,,,,,,,,,,,,,,,,,,,,,,,749.8918899000273,None,749.8918899000273,None,749.3915807000012,None,j,1.2124200999969617,749.8918899000273,None,,,,,,,r,001,2021_Jul_10_1642,toilet,2021.1.3,99.89261545799386,
0,180,4,-4,1.06,,,,,2,0,2,0,0,39,39,26,,,,,,,,,,,,,,,,,,,,,,,752.1133952999953,None,752.1133952999953,None,751.6130564000341,None,f,1.2469279999495484,752.1133952999953,None,,,,,,,r,001,2021_Jul_10_1642,toilet,2021.1.3,99.89261545799386,
0,0,-4,4,0.85,,,,,2,0,2,0,0,40,40,0,,,,,,,,,,,,,,,,,,,,,,,754.3749324000091,None,754.3749324000091,None,753.8745929000434,None,f,0.5851623000344262,754.3749324000091,None,,,,,,,r,001,2021_Jul_10_1642,toilet,2021.1.3,99.89261545799386,
180,180,4,-4,1.03,,,,,2,0,2,0,0,41,41,39,,,,,,,,,,,,,,,,,,,,,,,755.9661188000464,None,755.9661188000464,None,755.4657458000001,None,f,0.6101372999837622,755.9661188000464,None,,,,,,,r,001,2021_Jul_10_1642,toilet,2021.1.3,99.89261545799386,
0,180,4,-4,1.03,,,,,2,0,2,0,0,42,42,25,,,,,,,,,,,,,,,,,,,,,,,757.587116300012,None,757.587116300012,None,757.0867647000123,None,f,0.7969564999802969,757.587116300012,None,,,,,,,r,001,2021_Jul_10_1642,toilet,2021.1.3,99.89261545799386,
0,180,4,-4,1.0,,,,,2,0,2,0,0,43,43,24,,,,,,,,,,,,,,,,,,,,,,,759.38831509999,None,759.38831509999,None,758.8879871999961,None,j,1.0760451999958605,759.38831509999,None,,,,,,,r,001,2021_Jul_10_1642,toilet,2021.1.3,99.89261545799386,
0,180,-4,4,0.94,,,,,2,0,2,0,0,44,44,15,,,,,,,,,,,,,,,,,,,,,,,761.4797487000469,None,761.4797487000469,None,760.989413000003,None,f,1.4645214999909513,761.4797487000469,None,,,,,,,r,001,2021_Jul_10_1642,toilet,2021.1.3,99.89261545799386,
0,180,4,-4,0.85,,,,,2,0,2,0,0,45,45,21,,,,,,,,,,,,,,,,,,,,,,,763.961460600025,None,763.961460600025,None,763.4611810999922,None,j,0.4706119000329636,763.961460600025,None,,,,,,,r,001,2021_Jul_10_1642,toilet,2021.1.3,99.89261545799386,
0,180,4,-4,0.97,,,,,2,0,2,0,0,46,46,23,,,,,,,,,,,,,,,,,,,,,,,765.4324240999995,None,765.4324240999995,None,764.9320856000413,None,j,0.8717247000313364,765.4324240999995,None,,,,,,,r,001,2021_Jul_10_1642,toilet,2021.1.3,99.89261545799386,
0,180,4,-4,0.94,,,,,2,0,2,0,0,47,47,22,,,,,,,,,,,,,,,,,,,,,,,767.3036962000187,None,767.3036962000187,None,766.8033499000012,None,j,0.6004556000116281,767.3036962000187,None,,,,,,,r,001,2021_Jul_10_1642,toilet,2021.1.3,99.89261545799386,
180,180,4,-4,1.06,,,,,2,0,2,0,0,48,48,40,,,,,,,,,,,,,,,,,,,,,,,768.9147859000368,None,768.9147859000368,None,768.4144809000427,None,f,1.261358999996446,768.9147859000368,None,,,,,,,r,001,2021_Jul_10_1642,toilet,2021.1.3,99.89261545799386,
0,0,-4,4,1.06,,,,,2,0,2,0,0,49,49,5,,,,,,,,,,,,,,,,,,,,,,,771.1864094000193,None,771.1864094000193,None,770.6860218000365,None,j,0.5256557999528013,771.1864094000193,None,,,,,,,r,001,2021_Jul_10_1642,toilet,2021.1.3,99.89261545799386,
180,180,-4,4,0.85,,,,,2,0,2,0,0,50,50,28,,,,,,,,,,,,,,,,,,,,,,,772.7173615000211,None,772.7173615000211,None,772.2170249000192,None,f,0.5628161000204273,772.7173615000211,None,,,,,,,r,001,2021_Jul_10_1642,toilet,2021.1.3,99.89261545799386,
180,0,-4,4,1.06,,,,,2,0,2,0,0,51,51,47,,,,,,,,,,,,,,,,,,,,,,,774.2884272999945,None,774.2884272999945,None,773.7881054000463,None,j,0.5756277999607846,774.2884272999945,None,,,,,,,r,001,2021_Jul_10_1642,toilet,2021.1.3,99.89261545799386,
0,180,-4,4,1.06,,,,,2,0,2,0,0,52,52,19,,,,,,,,,,,,,,,,,,,,,,,775.8695279000094,None,775.8695279000094,None,775.3691606000066,None,j,0.5947303000139073,775.8695279000094,None,,,,,,,r,001,2021_Jul_10_1642,toilet,2021.1.3,99.89261545799386,
0,180,-4,4,1.15,,,,,2,0,2,0,0,53,53,20,,,,,,,,,,,,,,,,,,,,,,,777.4805893000448,None,777.4805893000448,None,776.9803275000304,None,j,0.5195546000031754,777.4805893000448,None,,,,,,,r,001,2021_Jul_10_1642,toilet,2021.1.3,99.89261545799386,
180,0,-4,4,1.03,,,,,2,0,2,0,0,54,54,46,,,,,,,,,,,,,,,,,,,,,,,779.0116633000434,None,779.0116633000434,None,778.5113814999931,None,f,0.6044511999934912,779.0116633000434,None,,,,,,,r,001,2021_Jul_10_1642,toilet,2021.1.3,99.89261545799386,
180,0,4,-4,0.85,,,,,2,0,2,0,0,55,55,49,,,,,,,,,,,,,,,,,,,,,,,780.6227283999906,None,780.6227283999906,None,780.1223782000015,None,j,0.4652908999705687,780.6227283999906,None,,,,,,,r,001,2021_Jul_10_1642,toilet,2021.1.3,99.89261545799386,
180,180,-4,4,1.15,,,,,2,0,2,0,1,0,56,34,,,,,,,,,,,,,,,,,,,,,,,782.0937222000211,None,782.0937222000211,None,781.5933798000333,None,j,0.5144024000037462,782.0937222000211,None,,,,,,,r,001,2021_Jul_10_1642,toilet,2021.1.3,99.89261545799386,
0,0,-4,4,1.15,,,,,2,0,2,0,1,1,57,6,,,,,,,,,,,,,,,,,,,,,,,783.6147567000007,None,783.6147567000007,None,783.1144078000216,None,j,0.4973179000080563,783.6147567000007,None,,,,,,,r,001,2021_Jul_10_1642,toilet,2021.1.3,99.89261545799386,
180,180,4,-4,1.06,,,,,2,0,2,0,1,2,58,40,,,,,,,,,,,,,,,,,,,,,,,785.1158523000195,None,785.1158523000195,None,784.6155102000339,None,f,0.6124324999982491,785.1158523000195,None,,,,,,,r,001,2021_Jul_10_1642,toilet,2021.1.3,99.89261545799386,
180,0,4,-4,0.94,,,,,2,0,2,0,1,3,59,50,,,,,,,,,,,,,,,,,,,,,,,786.7468732999987,None,786.7468732999987,None,786.2465350000421,None,j,0.45335200004046783,786.7468732999987,None,,,,,,,r,001,2021_Jul_10_1642,toilet,2021.1.3,99.89261545799386,
0,0,-4,4,0.85,,,,,2,0,2,0,1,4,60,0,,,,,,,,,,,,,,,,,,,,,,,788.2078687000321,None,788.2078687000321,None,787.7075248000328,None,f,0.5281803999678232,788.2078687000321,None,,,,,,,r,001,2021_Jul_10_1642,toilet,2021.1.3,99.89261545799386,
0,0,4,-4,0.94,,,,,2,0,2,0,1,5,61,8,,,,,,,,,,,,,,,,,,,,,,,789.7389082000009,None,789.7389082000009,None,789.2385583000141,None,j,0.5012556000147015,789.7389082000009,None,,,,,,,r,001,2021_Jul_10_1642,toilet,2021.1.3,99.89261545799386,
180,180,-4,4,1.03,,,,,2,0,2,0,1,6,62,32,,,,,,,,,,,,,,,,,,,,,,,791.2399155000458,None,791.2399155000458,None,790.7395855000359,None,j,0.5521493999985978,791.2399155000458,None,,,,,,,r,001,2021_Jul_10_1642,toilet,2021.1.3,99.89261545799386,
0,180,-4,4,1.0,,,,,2,0,2,0,1,7,63,17,,,,,,,,,,,,,,,,,,,,,,,792.8010688000359,None,792.8010688000359,None,792.300742499996,None,j,1.1031220000004396,792.8010688000359,None,,,,,,,r,001,2021_Jul_10_1642,toilet,2021.1.3,99.89261545799386,
180,180,-4,4,1.06,,,,,2,0,2,0,1,8,64,33,,,,,,,,,,,,,,,,,,,,,,,794.9124080000329,None,794.9124080000329,None,794.4120488000335,None,j,0.6717489999718964,794.9124080000329,None,,,,,,,r,001,2021_Jul_10_1642,toilet,2021.1.3,99.89261545799386,
0,180,4,-4,0.85,,,,,2,0,2,0,1,9,65,21,,,,,,,,,,,,,,,,,,,,,,,796.5935441000038,None,796.5935441000038,None,796.093210400024,None,j,0.4626118000014685,796.5935441000038,None,,,,,,,r,001,2021_Jul_10_1642,toilet,2021.1.3,99.89261545799386,
180,0,4,-4,1.06,,,,,2,0,2,0,1,10,66,54,,,,,,,,,,,,,,,,,,,,,,,798.0745541999931,None,798.0745541999931,None,797.57420740003,None,f,0.6294960000086576,798.0745541999931,None,,,,,,,r,001,2021_Jul_10_1642,toilet,2021.1.3,99.89261545799386,
180,0,-4,4,1.03,,,,,2,0,2,0,1,11,67,46,,,,,,,,,,,,,,,,,,,,,,,799.7057565000141,None,799.7057565000141,None,799.2053936000448,None,j,1.8782875000033528,799.7057565000141,None,,,,,,,r,001,2021_Jul_10_1642,toilet,2021.1.3,99.89261545799386,
0,180,-4,4,1.15,,,,,2,0,2,0,1,12,68,20,,,,,,,,,,,,,,,,,,,,,,,802.5876091000391,None,802.5876091000391,None,802.0872690000106,None,j,0.5006786999874748,802.5876091000391,None,,,,,,,r,001,2021_Jul_10_1642,toilet,2021.1.3,99.89261545799386,
180,0,4,-4,1.03,,,,,2,0,2,0,1,13,69,53,,,,,,,,,,,,,,,,,,,,,,,804.0986352000036,None,804.0986352000036,None,803.5982914000051,None,f,0.6855759000172839,804.0986352000036,None,,,,,,,r,001,2021_Jul_10_1642,toilet,2021.1.3,99.89261545799386,
0,180,4,-4,1.0,,,,,2,0,2,0,1,14,70,24,,,,,,,,,,,,,,,,,,,,,,,805.7997865999932,None,805.7997865999932,None,805.2994525000104,None,j,6.056362899951637,805.7997865999932,None,,,,,,,r,001,2021_Jul_10_1642,toilet,2021.1.3,99.89261545799386,
0,180,-4,4,0.85,,,,,2,0,2,0,1,15,71,14,,,,,,,,,,,,,,,,,,,,,,,812.8745829000254,None,812.8745829000254,None,812.3742416000459,None,f,0.5656684000277892,812.8745829000254,None,,,,,,,r,001,2021_Jul_10_1642,toilet,2021.1.3,99.89261545799386,
0,180,4,-4,0.97,,,,,2,0,2,0,1,16,72,23,,,,,,,,,,,,,,,,,,,,,,,814.4557312999968,None,814.4557312999968,None,813.9553180999937,None,j,1.144472300016787,814.4557312999968,None,,,,,,,r,001,2021_Jul_10_1642,toilet,2021.1.3,99.89261545799386,
0,180,-4,4,0.97,,,,,2,0,2,0,1,17,73,16,,,,,,,,,,,,,,,,,,,,,,,816.6171253999928,None,816.6171253999928,None,816.1167822999996,None,f,1.0630168999778107,816.6171253999928,None,,,,,,,r,001,2021_Jul_10_1642,toilet,2021.1.3,99.89261545799386,
180,180,4,-4,1.03,,,,,2,0,2,0,1,18,74,39,,,,,,,,,,,,,,,,,,,,,,,818.6885222000419,None,818.6885222000419,None,818.1881818000111,None,f,0.7516352999955416,818.6885222000419,None,,,,,,,r,001,2021_Jul_10_1642,toilet,2021.1.3,99.89261545799386,
180,0,4,-4,0.97,,,,,2,0,2,0,1,19,75,51,,,,,,,,,,,,,,,,,,,,,,,820.4497239000048,None,820.4497239000048,None,819.9493788999971,None,j,0.5103966000024229,820.4497239000048,None,,,,,,,r,001,2021_Jul_10_1642,toilet,2021.1.3,99.89261545799386,
180,0,-4,4,0.97,,,,,2,0,2,0,1,20,76,44,,,,,,,,,,,,,,,,,,,,,,,821.9708413000335,None,821.9708413000335,None,821.4704103000113,None,j,6.701322300010361,821.9708413000335,None,,,,,,,r,001,2021_Jul_10_1642,toilet,2021.1.3,99.89261545799386,
180,180,4,-4,0.97,,,,,2,0,2,0,1,21,77,37,,,,,,,,,,,,,,,,,,,,,,,829.6959865000099,None,829.6959865000099,None,829.1957185000065,None,j,0.832146400003694,829.6959865000099,None,,,,,,,r,001,2021_Jul_10_1642,toilet,2021.1.3,99.89261545799386,
180,180,4,-4,0.94,,,,,2,0,2,0,1,22,78,36,,,,,,,,,,,,,,,,,,,,,,,831.5372399000335,None,831.5372399000335,None,831.0368911999976,None,j,0.5428260000189766,831.5372399000335,None,,,,,,,r,001,2021_Jul_10_1642,toilet,2021.1.3,99.89261545799386,
0,0,4,-4,1.03,,,,,2,0,2,0,1,23,79,11,,,,,,,,,,,,,,,,,,,,,,,833.0882836999954,None,833.0882836999954,None,832.5879771999898,None,f,5.055747699982021,833.0882836999954,None,,,,,,,r,001,2021_Jul_10_1642,toilet,2021.1.3,99.89261545799386,
180,180,-4,4,0.85,,,,,2,0,2,0,1,24,80,28,,,,,,,,,,,,,,,,,,,,,,,839.152405700006,None,839.152405700006,None,838.6520540000056,None,f,0.5276187999988906,839.152405700006,None,,,,,,,r,001,2021_Jul_10_1642,toilet,2021.1.3,99.89261545799386,
180,180,4,-4,1.0,,,,,2,0,2,0,1,25,81,38,,,,,,,,,,,,,,,,,,,,,,,840.6834366000257,None,840.6834366000257,None,840.1830949000432,None,j,0.5487398999975994,840.6834366000257,None,,,,,,,r,001,2021_Jul_10_1642,toilet,2021.1.3,99.89261545799386,
180,180,4,-4,0.85,,,,,2,0,2,0,1,26,82,35,,,,,,,,,,,,,,,,,,,,,,,842.2444965000032,None,842.2444965000032,None,841.7441529000062,None,j,0.42752930003916845,842.2444965000032,None,,,,,,,r,001,2021_Jul_10_1642,toilet,2021.1.3,99.89261545799386,
0,0,4,-4,1.06,,,,,2,0,2,0,1,27,83,12,,,,,,,,,,,,,,,,,,,,,,,843.6754731000401,None,843.6754731000401,None,843.1752119000303,None,f,0.46865160000743344,843.6754731000401,None,,,,,,,r,001,2021_Jul_10_1642,toilet,2021.1.3,99.89261545799386,
0,0,4,-4,1.0,,,,,2,0,2,0,1,28,84,10,,,,,,,,,,,,,,,,,,,,,,,845.1564988000318,None,845.1564988000318,None,844.6562280000071,None,j,0.5875228000222705,845.1564988000318,None,,,,,,,r,001,2021_Jul_10_1642,toilet,2021.1.3,99.89261545799386,
0,180,-4,4,1.03,,,,,2,0,2,0,1,29,85,18,,,,,,,,,,,,,,,,,,,,,,,846.7475436000386,None,846.7475436000386,None,846.2472145000356,None,j,0.40450979996239766,846.7475436000386,None,,,,,,,r,001,2021_Jul_10_1642,toilet,2021.1.3,99.89261545799386,
180,180,-4,4,0.97,,,,,2,0,2,0,1,30,86,30,,,,,,,,,,,,,,,,,,,,,,,848.1584979000036,None,848.1584979000036,None,847.6581578000332,None,f,1.3936894000507891,848.1584979000036,None,,,,,,,r,001,2021_Jul_10_1642,toilet,2021.1.3,99.89261545799386,
0,180,4,-4,1.03,,,,,2,0,2,0,1,31,87,25,,,,,,,,,,,,,,,,,,,,,,,850.5701411000337,None,850.5701411000337,None,850.0697968000313,None,f,0.5660454999888316,850.5701411000337,None,,,,,,,r,001,2021_Jul_10_1642,toilet,2021.1.3,99.89261545799386,
180,0,4,-4,1.0,,,,,2,0,2,0,1,32,88,52,,,,,,,,,,,,,,,,,,,,,,,852.1512824000092,None,852.1512824000092,None,851.65095380001,None,j,0.5527751999907196,852.1512824000092,None,,,,,,,r,001,2021_Jul_10_1642,toilet,2021.1.3,99.89261545799386,
180,180,4,-4,1.15,,,,,2,0,2,0,1,33,89,41,,,,,,,,,,,,,,,,,,,,,,,853.7122630000231,None,853.7122630000231,None,853.2119249000098,None,f,0.6077941000112332,853.7122630000231,None,,,,,,,r,001,2021_Jul_10_1642,toilet,2021.1.3,99.89261545799386,
180,0,-4,4,1.0,,,,,2,0,2,0,1,34,90,45,,,,,,,,,,,,,,,,,,,,,,,855.3233562000096,None,855.3233562000096,None,854.8230161000392,None,j,0.82092470000498,855.3233562000096,None,,,,,,,r,001,2021_Jul_10_1642,toilet,2021.1.3,99.89261545799386,
0,0,-4,4,1.06,,,,,2,0,2,0,1,35,91,5,,,,,,,,,,,,,,,,,,,,,,,857.1545959000359,None,857.1545959000359,None,856.6542563000112,None,j,0.5414874000125565,857.1545959000359,None,,,,,,,r,001,2021_Jul_10_1642,toilet,2021.1.3,99.89261545799386,
0,180,4,-4,0.94,,,,,2,0,2,0,1,36,92,22,,,,,,,,,,,,,,,,,,,,,,,858.6956424000091,None,858.6956424000091,None,858.1953187999898,None,j,1.6244985000230372,858.6956424000091,None,,,,,,,r,001,2021_Jul_10_1642,toilet,2021.1.3,99.89261545799386,
180,0,4,-4,0.85,,,,,2,0,2,0,1,37,93,49,,,,,,,,,,,,,,,,,,,,,,,861.3274257000303,None,861.3274257000303,None,860.8270911000436,None,j,0.5126273999921978,861.3274257000303,None,,,,,,,r,001,2021_Jul_10_1642,toilet,2021.1.3,99.89261545799386,
0,0,-4,4,0.97,,,,,2,0,2,0,1,38,94,2,,,,,,,,,,,,,,,,,,,,,,,862.8484562000376,None,862.8484562000376,None,862.3481160000083,None,j,7.5997457999619655,862.8484562000376,None,,,,,,,r,001,2021_Jul_10_1642,toilet,2021.1.3,99.89261545799386,
0,0,4,-4,1.15,,,,,2,0,2,0,1,39,95,13,,,,,,,,,,,,,,,,,,,,,,,871.4643001999939,None,871.4643001999939,None,870.9639555999893,None,f,0.5518810999928974,871.4643001999939,None,,,,,,,r,001,2021_Jul_10_1642,toilet,2021.1.3,99.89261545799386,
0,0,-4,4,1.03,,,,,2,0,2,0,1,40,96,4,,,,,,,,,,,,,,,,,,,,,,,873.0354548000032,None,873.0354548000032,None,872.5350227000308,None,j,0.4686595000093803,873.0354548000032,None,,,,,,,r,001,2021_Jul_10_1642,toilet,2021.1.3,99.89261545799386,
180,180,-4,4,1.0,,,,,2,0,2,0,1,41,97,31,,,,,,,,,,,,,,,,,,,,,,,874.5163999000215,None,874.5163999000215,None,874.0160338000278,None,f,0.651612900022883,874.5163999000215,None,,,,,,,r,001,2021_Jul_10_1642,toilet,2021.1.3,99.89261545799386,
0,180,4,-4,1.06,,,,,2,0,2,0,1,42,98,26,,,,,,,,,,,,,,,,,,,,,,,876.1674847000395,None,876.1674847000395,None,875.6671241000295,None,f,0.5685249000089243,876.1674847000395,None,,,,,,,r,001,2021_Jul_10_1642,toilet,2021.1.3,99.89261545799386,
180,0,-4,4,0.94,,,,,2,0,2,0,1,43,99,43,,,,,,,,,,,,,,,,,,,,,,,877.7385497000068,None,877.7385497000068,None,877.2382131000049,None,f,1.045784600020852,877.7385497000068,None,,,,,,,r,001,2021_Jul_10_1642,toilet,2021.1.3,99.89261545799386,
0,180,-4,4,1.06,,,,,2,0,2,0,1,44,100,19,,,,,,,,,,,,,,,,,,,,,,,879.7999565000064,None,879.7999565000064,None,879.2996078000288,None,j,0.7922193999984302,879.7999565000064,None,,,,,,,r,001,2021_Jul_10_1642,toilet,2021.1.3,99.89261545799386,
0,180,-4,4,0.94,,,,,2,0,2,0,1,45,101,15,,,,,,,,,,,,,,,,,,,,,,,881.611272500013,None,881.611272500013,None,881.1108326000394,None,f,3.7969105999800377,881.611272500013,None,,,,,,,r,001,2021_Jul_10_1642,toilet,2021.1.3,99.89261545799386,
0,180,4,-4,1.15,,,,,2,0,2,0,1,46,102,27,,,,,,,,,,,,,,,,,,,,,,,886.4244388000225,None,886.4244388000225,None,885.9240965000354,None,f,0.7275703999912366,886.4244388000225,None,,,,,,,r,001,2021_Jul_10_1642,toilet,2021.1.3,99.89261545799386,
180,0,-4,4,1.06,,,,,2,0,2,0,1,47,103,47,,,,,,,,,,,,,,,,,,,,,,,888.1556645000237,None,888.1556645000237,None,887.6553653000155,None,j,0.5323514000046998,888.1556645000237,None,,,,,,,r,001,2021_Jul_10_1642,toilet,2021.1.3,99.89261545799386,
180,0,-4,4,0.85,,,,,2,0,2,0,1,48,104,42,,,,,,,,,,,,,,,,,,,,,,,889.6966385000269,None,889.6966385000269,None,889.1963894999935,None,f,0.863468199968338,889.6966385000269,None,,,,,,,r,001,2021_Jul_10_1642,toilet,2021.1.3,99.89261545799386,
0,0,-4,4,1.0,,,,,2,0,2,0,1,49,105,3,,,,,,,,,,,,,,,,,,,,,,,891.5679226000211,None,891.5679226000211,None,891.0675871000276,None,f,1.184304099995643,891.5679226000211,None,,,,,,,r,001,2021_Jul_10_1642,toilet,2021.1.3,99.89261545799386,
0,0,-4,4,0.94,,,,,2,0,2,0,1,50,106,1,,,,,,,,,,,,,,,,,,,,,,,893.7694176000077,None,893.7694176000077,None,893.2690756000229,None,f,0.6466923000407405,893.7694176000077,None,,,,,,,r,001,2021_Jul_10_1642,toilet,2021.1.3,99.89261545799386,
0,0,4,-4,0.85,,,,,2,0,2,0,1,51,107,7,,,,,,,,,,,,,,,,,,,,,,,895.4205429000431,None,895.4205429000431,None,894.9202823000378,None,j,0.49956460000248626,895.4205429000431,None,,,,,,,r,001,2021_Jul_10_1642,toilet,2021.1.3,99.89261545799386,
0,0,4,-4,0.97,,,,,2,0,2,0,1,52,108,9,,,,,,,,,,,,,,,,,,,,,,,896.931564700033,None,896.931564700033,None,896.4313016000087,None,j,0.49247250001644716,896.931564700033,None,,,,,,,r,001,2021_Jul_10_1642,toilet,2021.1.3,99.89261545799386,
180,0,-4,4,1.15,,,,,2,0,2,0,1,53,109,48,,,,,,,,,,,,,,,,,,,,,,,898.4325815000338,None,898.4325815000338,None,897.9322489000042,None,j,0.6074416000046767,898.4325815000338,None,,,,,,,r,001,2021_Jul_10_1642,toilet,2021.1.3,99.89261545799386,
180,180,-4,4,0.94,,,,,2,0,2,0,1,54,110,29,,,,,,,,,,,,,,,,,,,,,,,900.0436721000005,None,900.0436721000005,None,899.5433353999979,None,f,0.5166239000391215,900.0436721000005,None,,,,,,,r,001,2021_Jul_10_1642,toilet,2021.1.3,99.89261545799386,
180,0,4,-4,1.15,,,,,2,0,2,0,1,55,111,55,,,,,,,,,,,,,,,,,,,,,,,901.584716900019,None,901.584716900019,None,901.0843750000349,None,f,0.7194149999995716,901.584716900019,None,,,,,,,r,001,2021_Jul_10_1642,toilet,2021.1.3,99.89261545799386,
,,,,,,,,,2,0,2,0,,,,,,,,,,,,,,,,,,,,,,,,,,,,,,,,,,,,,902.3252715000417,None,space,9.322839699976612,902.3252715000417,None,r,001,2021_Jul_10_1642,toilet,2021.1.3,99.89261545799386,
180,180,-4,4,1.15,,,,,3,0,3,0,0,0,0,34,,,,,,,,,,,,,,,,,911.6716116000316,None,space,0.8403857999946922,911.6716116000316,None,913.5228069000295,None,913.5228069000295,None,913.0224708000314,None,j,0.4292134999996051,913.5228069000295,None,,,,,,,r,001,2021_Jul_10_1642,toilet,2021.1.3,99.89261545799386,
180,0,-4,4,1.15,,,,,3,0,3,0,0,1,1,48,,,,,,,,,,,,,,,,,,,,,,,914.9537802000414,None,914.9537802000414,None,914.4534730000305,None,j,0.3583229999640025,914.9537802000414,None,,,,,,,r,001,2021_Jul_10_1642,toilet,2021.1.3,99.89261545799386,
0,180,-4,4,1.15,,,,,3,0,3,0,0,2,2,20,,,,,,,,,,,,,,,,,,,,,,,916.3147029000102,None,916.3147029000102,None,915.8143738000072,None,j,0.3574382000369951,916.3147029000102,None,,,,,,,r,001,2021_Jul_10_1642,toilet,2021.1.3,99.89261545799386,
180,0,-4,4,1.03,,,,,3,0,3,0,0,3,3,46,,,,,,,,,,,,,,,,,,,,,,,917.6957230000407,None,917.6957230000407,None,917.1952978000045,None,f,0.6564445000258274,917.6957230000407,None,,,,,,,r,001,2021_Jul_10_1642,toilet,2021.1.3,99.89261545799386,
0,180,4,-4,1.0,,,,,3,0,3,0,0,4,4,24,,,,,,,,,,,,,,,,,,,,,,,919.3667684000102,None,919.3667684000102,None,918.8664697000058,None,j,0.37744609999936074,919.3667684000102,None,,,,,,,r,001,2021_Jul_10_1642,toilet,2021.1.3,99.89261545799386,
180,0,-4,4,1.06,,,,,3,0,3,0,0,5,5,47,,,,,,,,,,,,,,,,,,,,,,,920.7477046000422,None,920.7477046000422,None,920.2473653000197,None,j,0.4363971999846399,920.7477046000422,None,,,,,,,r,001,2021_Jul_10_1642,toilet,2021.1.3,99.89261545799386,
180,0,-4,4,0.94,,,,,3,0,3,0,0,6,6,43,,,,,,,,,,,,,,,,,,,,,,,922.1987164000166,None,922.1987164000166,None,921.698351100029,None,f,0.6172753000282682,922.1987164000166,None,,,,,,,r,001,2021_Jul_10_1642,toilet,2021.1.3,99.89261545799386,
180,0,4,-4,1.0,,,,,3,0,3,0,0,7,7,52,,,,,,,,,,,,,,,,,,,,,,,923.829792900011,None,923.829792900011,None,923.3294626999996,None,j,1.5143936999957077,923.829792900011,None,,,,,,,r,001,2021_Jul_10_1642,toilet,2021.1.3,99.89261545799386,
0,180,-4,4,0.94,,,,,3,0,3,0,0,8,8,15,,,,,,,,,,,,,,,,,,,,,,,926.3615346000297,None,926.3615346000297,None,925.8612481000018,None,f,5.014526099956129,926.3615346000297,None,,,,,,,r,001,2021_Jul_10_1642,toilet,2021.1.3,99.89261545799386,
180,180,4,-4,1.03,,,,,3,0,3,0,0,9,9,39,,,,,,,,,,,,,,,,,,,,,,,932.3756881000008,None,932.3756881000008,None,931.8752512999927,None,f,1.4485339000239037,932.3756881000008,None,,,,,,,r,001,2021_Jul_10_1642,toilet,2021.1.3,99.89261545799386,
180,0,4,-4,0.94,,,,,3,0,3,0,0,10,10,50,,,,,,,,,,,,,,,,,,,,,,,934.8372861000244,None,934.8372861000244,None,934.3369155999972,None,j,0.490700000023935,934.8372861000244,None,,,,,,,r,001,2021_Jul_10_1642,toilet,2021.1.3,99.89261545799386,
0,180,4,-4,1.06,,,,,3,0,3,0,0,11,11,26,,,,,,,,,,,,,,,,,,,,,,,936.3282648000168,None,936.3282648000168,None,935.8279268000042,None,f,0.7118483000085689,936.3282648000168,None,,,,,,,r,001,2021_Jul_10_1642,toilet,2021.1.3,99.89261545799386,
0,0,-4,4,1.15,,,,,3,0,3,0,0,12,12,6,,,,,,,,,,,,,,,,,,,,,,,938.0494322000304,None,938.0494322000304,None,937.5490997000015,None,j,0.5267088999971747,938.0494322000304,None,,,,,,,r,001,2021_Jul_10_1642,toilet,2021.1.3,99.89261545799386,
180,180,-4,4,1.06,,,,,3,0,3,0,0,13,13,33,,,,,,,,,,,,,,,,,,,,,,,939.5904794000089,None,939.5904794000089,None,939.0902362000197,None,j,0.5376027000020258,939.5904794000089,None,,,,,,,r,001,2021_Jul_10_1642,toilet,2021.1.3,99.89261545799386,
180,0,-4,4,1.0,,,,,3,0,3,0,0,14,14,45,,,,,,,,,,,,,,,,,,,,,,,941.1415694000316,None,941.1415694000316,None,940.6412118000444,None,j,1.0983989000087604,941.1415694000316,None,,,,,,,r,001,2021_Jul_10_1642,toilet,2021.1.3,99.89261545799386,
0,180,4,-4,0.94,,,,,3,0,3,0,0,15,15,22,,,,,,,,,,,,,,,,,,,,,,,943.242954300018,None,943.242954300018,None,942.7426324000116,None,j,1.0932311000069603,943.242954300018,None,,,,,,,r,001,2021_Jul_10_1642,toilet,2021.1.3,99.89261545799386,
0,0,-4,4,0.85,,,,,3,0,3,0,0,16,16,0,,,,,,,,,,,,,,,,,,,,,,,945.3443843999994,None,945.3443843999994,None,944.854049000016,None,f,0.5277614000369795,945.3443843999994,None,,,,,,,r,001,2021_Jul_10_1642,toilet,2021.1.3,99.89261545799386,
0,180,4,-4,0.85,,,,,3,0,3,0,0,17,17,21,,,,,,,,,,,,,,,,,,,,,,,946.885513700021,None,946.885513700021,None,946.385087200033,None,j,0.6827096999622881,946.885513700021,None,,,,,,,r,001,2021_Jul_10_1642,toilet,2021.1.3,99.89261545799386,
0,0,-4,4,1.03,,,,,3,0,3,0,0,18,18,4,,,,,,,,,,,,,,,,,,,,,,,948.5865888000117,None,948.5865888000117,None,948.0863212000113,None,j,0.5495388000272214,948.5865888000117,None,,,,,,,r,001,2021_Jul_10_1642,toilet,2021.1.3,99.89261545799386,
0,180,-4,4,0.85,,,,,3,0,3,0,0,19,19,14,,,,,,,,,,,,,,,,,,,,,,,950.1376303000143,None,950.1376303000143,None,949.6372835999937,None,f,0.4863570000161417,950.1376303000143,None,,,,,,,r,001,2021_Jul_10_1642,toilet,2021.1.3,99.89261545799386,
180,180,4,-4,1.0,,,,,3,0,3,0,0,20,20,38,,,,,,,,,,,,,,,,,,,,,,,951.6286406000145,None,951.6286406000145,None,951.1283053000225,None,j,0.7876239999895915,951.6286406000145,None,,,,,,,r,001,2021_Jul_10_1642,toilet,2021.1.3,99.89261545799386,
180,0,4,-4,1.15,,,,,3,0,3,0,0,21,21,55,,,,,,,,,,,,,,,,,,,,,,,953.4299003999913,None,953.4299003999913,None,952.929523400031,None,f,0.7144045999739319,953.4299003999913,None,,,,,,,r,001,2021_Jul_10_1642,toilet,2021.1.3,99.89261545799386,
0,180,-4,4,1.03,,,,,3,0,3,0,0,22,22,18,,,,,,,,,,,,,,,,,,,,,,,955.161121800018,None,955.161121800018,None,954.6607766000088,None,j,1.3189962999895215,955.161121800018,None,,,,,,,r,001,2021_Jul_10_1642,toilet,2021.1.3,99.89261545799386,
0,0,-4,4,0.97,,,,,3,0,3,0,0,23,23,2,,,,,,,,,,,,,,,,,,,,,,,957.4826058000326,None,957.4826058000326,None,956.9822618000326,None,f,1.4455898000160232,957.4826058000326,None,,,,,,,r,001,2021_Jul_10_1642,toilet,2021.1.3,99.89261545799386,
0,0,-4,4,1.0,,,,,3,0,3,0,0,24,24,3,,,,,,,,,,,,,,,,,,,,,,,959.9442764000269,None,959.9442764000269,None,959.4439411000349,None,j,0.9998360999743454,959.9442764000269,None,,,,,,,r,001,2021_Jul_10_1642,toilet,2021.1.3,99.89261545799386,
180,0,4,-4,0.85,,,,,3,0,3,0,0,25,25,49,,,,,,,,,,,,,,,,,,,,,,,961.945710400003,None,961.945710400003,None,961.4452967999969,None,j,1.1264432999887504,961.945710400003,None,,,,,,,r,001,2021_Jul_10_1642,toilet,2021.1.3,99.89261545799386,
0,0,4,-4,1.06,,,,,3,0,3,0,0,26,26,12,,,,,,,,,,,,,,,,,,,,,,,964.0870867000194,None,964.0870867000194,None,963.5867534000427,None,f,0.5850535000208765,964.0870867000194,None,,,,,,,r,001,2021_Jul_10_1642,toilet,2021.1.3,99.89261545799386,
180,180,-4,4,0.94,,,,,3,0,3,0,0,27,27,29,,,,,,,,,,,,,,,,,,,,,,,965.678163100034,None,965.678163100034,None,965.1778296999983,None,f,0.5778171999845654,965.678163100034,None,,,,,,,r,001,2021_Jul_10_1642,toilet,2021.1.3,99.89261545799386,
180,180,-4,4,1.0,,,,,3,0,3,0,0,28,28,31,,,,,,,,,,,,,,,,,,,,,,,967.2592441000161,None,967.2592441000161,None,966.7588958000415,None,j,1.20487040001899,967.2592441000161,None,,,,,,,r,001,2021_Jul_10_1642,toilet,2021.1.3,99.89261545799386,
0,180,4,-4,1.15,,,,,3,0,3,0,0,29,29,27,,,,,,,,,,,,,,,,,,,,,,,969.4708174000261,None,969.4708174000261,None,968.970493700006,None,f,0.5291372999781743,969.4708174000261,None,,,,,,,r,001,2021_Jul_10_1642,toilet,2021.1.3,99.89261545799386,
180,180,-4,4,1.03,,,,,3,0,3,0,0,30,30,32,,,,,,,,,,,,,,,,,,,,,,,971.0017817000044,None,971.0017817000044,None,970.5015281999949,None,j,0.598295500036329,971.0017817000044,None,,,,,,,r,001,2021_Jul_10_1642,toilet,2021.1.3,99.89261545799386,
0,0,4,-4,1.03,,,,,3,0,3,0,0,31,31,11,,,,,,,,,,,,,,,,,,,,,,,972.6028574000229,None,972.6028574000229,None,972.1025227000355,None,j,1.045319200027734,972.6028574000229,None,,,,,,,r,001,2021_Jul_10_1642,toilet,2021.1.3,99.89261545799386,
180,0,-4,4,0.97,,,,,3,0,3,0,0,32,32,44,,,,,,,,,,,,,,,,,,,,,,,974.6642602999927,None,974.6642602999927,None,974.163916199992,None,f,0.6317379999672994,974.6642602999927,None,,,,,,,r,001,2021_Jul_10_1642,toilet,2021.1.3,99.89261545799386,
180,180,4,-4,0.97,,,,,3,0,3,0,0,33,33,37,,,,,,,,,,,,,,,,,,,,,,,976.2954595999909,None,976.2954595999909,None,975.7950212000287,None,j,0.5686096000135876,976.2954595999909,None,,,,,,,r,001,2021_Jul_10_1642,toilet,2021.1.3,99.89261545799386,
180,0,-4,4,0.85,,,,,3,0,3,0,0,34,34,42,,,,,,,,,,,,,,,,,,,,,,,977.876439100015,None,977.876439100015,None,977.3761885000276,None,f,0.4916621000156738,977.876439100015,None,,,,,,,r,001,2021_Jul_10_1642,toilet,2021.1.3,99.89261545799386,
180,180,-4,4,0.97,,,,,3,0,3,0,0,35,35,30,,,,,,,,,,,,,,,,,,,,,,,979.367439900001,None,979.367439900001,None,978.8670992000261,None,f,1.352586799999699,979.367439900001,None,,,,,,,r,001,2021_Jul_10_1642,toilet,2021.1.3,99.89261545799386,
180,0,4,-4,1.06,,,,,3,0,3,0,0,36,36,54,,,,,,,,,,,,,,,,,,,,,,,981.7290460999939,None,981.7290460999939,None,981.2287036000052,None,f,1.855072799953632,981.7290460999939,None,,,,,,,r,001,2021_Jul_10_1642,toilet,2021.1.3,99.89261545799386,
180,180,-4,4,0.85,,,,,3,0,3,0,0,37,37,28,,,,,,,,,,,,,,,,,,,,,,,984.5910711000324,None,984.5910711000324,None,984.1006639000261,None,f,5.392976300034206,984.5910711000324,None,,,,,,,r,001,2021_Jul_10_1642,toilet,2021.1.3,99.89261545799386,
0,180,-4,4,1.0,,,,,3,0,3,0,0,38,38,17,,,,,,,,,,,,,,,,,,,,,,,990.9954129999969,None,990.9954129999969,None,990.494986900012,None,j,0.6686352000106126,990.9954129999969,None,,,,,,,r,001,2021_Jul_10_1642,toilet,2021.1.3,99.89261545799386,
0,180,4,-4,1.03,,,,,3,0,3,0,0,39,39,25,,,,,,,,,,,,,,,,,,,,,,,992.676482000039,None,992.676482000039,None,992.1762085999944,None,f,0.5236085000215098,992.676482000039,None,,,,,,,r,001,2021_Jul_10_1642,toilet,2021.1.3,99.89261545799386,
0,0,4,-4,0.94,,,,,3,0,3,0,0,40,40,8,,,,,,,,,,,,,,,,,,,,,,,994.207503600046,None,994.207503600046,None,993.7071644000243,None,j,0.4485046999761835,994.207503600046,None,,,,,,,r,001,2021_Jul_10_1642,toilet,2021.1.3,99.89261545799386,
0,180,4,-4,0.97,,,,,3,0,3,0,0,41,41,23,,,,,,,,,,,,,,,,,,,,,,,995.6584857000271,None,995.6584857000271,None,995.1581559000188,None,j,0.7894547000178136,995.6584857000271,None,,,,,,,r,001,2021_Jul_10_1642,toilet,2021.1.3,99.89261545799386,
180,0,4,-4,0.97,,,,,3,0,3,0,0,42,42,51,,,,,,,,,,,,,,,,,,,,,,,997.4497083000024,None,997.4497083000024,None,996.9493605000316,None,j,0.646421300014481,997.4497083000024,None,,,,,,,r,001,2021_Jul_10_1642,toilet,2021.1.3,99.89261545799386,
180,180,4,-4,0.94,,,,,3,0,3,0,0,43,43,36,,,,,,,,,,,,,,,,,,,,,,,999.1108275000006,None,999.1108275000006,None,998.610574899998,None,j,0.45724720001453534,999.1108275000006,None,,,,,,,r,001,2021_Jul_10_1642,toilet,2021.1.3,99.89261545799386,
0,0,4,-4,1.15,,,,,3,0,3,0,0,44,44,13,,,,,,,,,,,,,,,,,,,,,,,1000.5818243999965,None,1000.5818243999965,None,1000.0815062000183,None,f,0.49014959996566176,1000.5818243999965,None,,,,,,,r,001,2021_Jul_10_1642,toilet,2021.1.3,99.89261545799386,
180,180,4,-4,0.85,,,,,3,0,3,0,0,45,45,35,,,,,,,,,,,,,,,,,,,,,,,1002.0728382000234,None,1002.0728382000234,None,1001.5725264000357,None,j,0.3751774000120349,1002.0728382000234,None,,,,,,,r,001,2021_Jul_10_1642,toilet,2021.1.3,99.89261545799386,
180,180,4,-4,1.06,,,,,3,0,3,0,0,46,46,40,,,,,,,,,,,,,,,,,,,,,,,1003.4537721000379,None,1003.4537721000379,None,1002.9534329000162,None,f,0.48227269999915734,1003.4537721000379,None,,,,,,,r,001,2021_Jul_10_1642,toilet,2021.1.3,99.89261545799386,
0,0,4,-4,0.97,,,,,3,0,3,0,0,47,47,9,,,,,,,,,,,,,,,,,,,,,,,1004.9447919999948,None,1004.9447919999948,None,1004.4444457000354,None,j,0.8312440000008792,1004.9447919999948,None,,,,,,,r,001,2021_Jul_10_1642,toilet,2021.1.3,99.89261545799386,
180,180,4,-4,1.15,,,,,3,0,3,0,0,48,48,41,,,,,,,,,,,,,,,,,,,,,,,1006.7861130000092,None,1006.7861130000092,None,1006.2857655000407,None,f,0.5579163999645971,1006.7861130000092,None,,,,,,,r,001,2021_Jul_10_1642,toilet,2021.1.3,99.89261545799386,
0,0,-4,4,0.94,,,,,3,0,3,0,0,49,49,1,,,,,,,,,,,,,,,,,,,,,,,1008.3570989000145,None,1008.3570989000145,None,1007.8567560000229,None,f,0.5388605000334792,1008.3570989000145,None,,,,,,,r,001,2021_Jul_10_1642,toilet,2021.1.3,99.89261545799386,
180,0,4,-4,1.03,,,,,3,0,3,0,0,50,50,53,,,,,,,,,,,,,,,,,,,,,,,1009.8981453000451,None,1009.8981453000451,None,1009.397800500039,None,j,0.5018578000017442,1009.8981453000451,None,,,,,,,r,001,2021_Jul_10_1642,toilet,2021.1.3,99.89261545799386,
0,180,-4,4,0.97,,,,,3,0,3,0,0,51,51,16,,,,,,,,,,,,,,,,,,,,,,,1011.409197400033,None,1011.409197400033,None,1010.908826400002,None,j,1.8708169999881648,1011.409197400033,None,,,,,,,r,001,2021_Jul_10_1642,toilet,2021.1.3,99.89261545799386,
0,180,-4,4,1.06,,,,,3,0,3,0,0,52,52,19,,,,,,,,,,,,,,,,,,,,,,,1014.2812070000218,None,1014.2812070000218,None,1013.7808533000061,None,j,0.5187350999913178,1014.2812070000218,None,,,,,,,r,001,2021_Jul_10_1642,toilet,2021.1.3,99.89261545799386,
0,0,4,-4,0.85,,,,,3,0,3,0,0,53,53,7,,,,,,,,,,,,,,,,,,,,,,,1015.802148399991,None,1015.802148399991,None,1015.3018089000252,None,j,0.4697988999541849,1015.802148399991,None,,,,,,,r,001,2021_Jul_10_1642,toilet,2021.1.3,99.89261545799386,
0,0,4,-4,1.0,,,,,3,0,3,0,0,54,54,10,,,,,,,,,,,,,,,,,,,,,,,1017.2731392999995,None,1017.2731392999995,None,1016.7728049000143,None,j,0.9189646000158973,1017.2731392999995,None,,,,,,,r,001,2021_Jul_10_1642,toilet,2021.1.3,99.89261545799386,
0,0,-4,4,1.06,,,,,3,0,3,0,0,55,55,5,,,,,,,,,,,,,,,,,,,,,,,1019.20445010002,None,1019.20445010002,None,1018.7041141000227,None,j,0.5555185999837704,1019.20445010002,None,,,,,,,r,001,2021_Jul_10_1642,toilet,2021.1.3,99.89261545799386,
180,0,-4,4,1.0,,,,,3,0,3,0,1,0,56,45,,,,,,,,,,,,,,,,,,,,,,,1020.7655519000255,None,1020.7655519000255,None,1020.2651702000294,None,f,2.2264225000399165,1020.7655519000255,None,,,,,,,r,001,2021_Jul_10_1642,toilet,2021.1.3,99.89261545799386,
180,180,-4,4,1.06,,,,,3,0,3,0,1,1,57,33,,,,,,,,,,,,,,,,,,,,,,,1023.9977008000133,None,1023.9977008000133,None,1023.4973621999961,None,j,0.7222372000105679,1023.9977008000133,None,,,,,,,r,001,2021_Jul_10_1642,toilet,2021.1.3,99.89261545799386,
0,180,-4,4,1.0,,,,,3,0,3,0,1,2,58,17,,,,,,,,,,,,,,,,,,,,,,,1025.728875300032,None,1025.728875300032,None,1025.2285376000218,None,j,1.4072674000053667,1025.728875300032,None,,,,,,,r,001,2021_Jul_10_1642,toilet,2021.1.3,99.89261545799386,
180,0,-4,4,1.15,,,,,3,0,3,0,1,3,59,48,,,,,,,,,,,,,,,,,,,,,,,1028.150645100046,None,1028.150645100046,None,1027.6501960000023,None,j,0.7614641000400297,1028.150645100046,None,,,,,,,r,001,2021_Jul_10_1642,toilet,2021.1.3,99.89261545799386,
