ori_st,ori_pr,xpos_st,xpos_pr,size,trials_3.thisRepN,trials_3.thisTrialN,trials_3.thisN,trials_3.thisIndex,trials_2.thisRepN,trials_2.thisTrialN,trials_2.thisN,trials_2.thisIndex,trials.thisRepN,trials.thisTrialN,trials.thisN,trials.thisIndex,wel_pra.started,wel_pra.stopped,resp_wel.keys,resp_wel.rt,resp_wel.started,resp_wel.stopped,standard_pra.started,standard_pra.stopped,prove_pra.started,prove_pra.stopped,fixation.started,fixation.stopped,resp_pra.keys,resp_pra.rt,resp_pra.started,resp_pra.stopped,instr.started,instr.stopped,key_resp_2.keys,key_resp_2.rt,key_resp_2.started,key_resp_2.stopped,standard.started,standard.stopped,probe.started,probe.stopped,text.started,text.stopped,resp.keys,resp.rt,resp.started,resp.stopped,text_2.started,text_2.stopped,key_resp.keys,key_resp.rt,key_resp.started,key_resp.stopped,text_3.started,text_3.stopped,key_resp_3.keys,key_resp_3.rt,key_resp_3.started,key_resp_3.stopped,participant,session,date,expName,psychopyVersion,frameRate,
,,,,,,,,,,,,,,,,,29.795541700092144,None,space,137.87962509994395,29.795541700092144,None,,,,,,,,,,,,,,,,,,,,,,,,,,,,,,,,,,,,,,,f,001,2021_Jul_02_1155,toilet,2021.1.3,99.95941654023954,
0,0,-4,4,0.85,0,0,0,0,,,,,,,,,,,,,,,168.69721460004803,None,168.69721460004803,None,168.19696249999106,None,f,0.7059532999992371,168.69721460004803,None,,,,,,,,,,,,,,,,,,,,,,,,,,,,,f,001,2021_Jul_02_1155,toilet,2021.1.3,99.95941654023954,
0,0,-4,4,1.15,0,1,1,2,,,,,,,,,,,,,,,170.41838210006244,None,170.41838210006244,None,169.9181328000268,None,j,0.6007129000499845,170.41838210006244,None,,,,,,,,,,,,,,,,,,,,,,,,,,,,,f,001,2021_Jul_02_1155,toilet,2021.1.3,99.95941654023954,
0,180,-4,4,1.15,0,2,2,6,,,,,,,,,,,,,,,172.01946380001027,None,172.01946380001027,None,171.5191217000829,None,j,0.6318412999389693,172.01946380001027,None,,,,,,,,,,,,,,,,,,,,,,,,,,,,,f,001,2021_Jul_02_1155,toilet,2021.1.3,99.95941654023954,
180,0,-4,4,0.85,0,3,3,12,,,,,,,,,,,,,,,173.65057599998545,None,173.65057599998545,None,173.15022700000554,None,f,0.48857439996208996,173.65057599998545,None,,,,,,,,,,,,,,,,,,,,,,,,,,,,,f,001,2021_Jul_02_1155,toilet,2021.1.3,99.95941654023954,
0,0,4,-4,0.85,0,4,4,1,,,,,,,,,,,,,,,175.14157850004267,None,175.14157850004267,None,174.65124480007216,None,j,0.4217389998957515,175.14157850004267,None,,,,,,,,,,,,,,,,,,,,,,,,,,,,,f,001,2021_Jul_02_1155,toilet,2021.1.3,99.95941654023954,
180,180,-4,4,1.15,0,5,5,10,,,,,,,,,,,,,,,176.5726434000535,None,176.5726434000535,None,176.0722108000191,None,j,0.5106846999842674,176.5726434000535,None,,,,,,,,,,,,,,,,,,,,,,,,,,,,,f,001,2021_Jul_02_1155,toilet,2021.1.3,99.95941654023954,
0,180,4,-4,1.15,0,6,6,7,,,,,,,,,,,,,,,178.09358270000666,None,178.09358270000666,None,177.5932727000909,None,f,0.41363309998996556,178.09358270000666,None,,,,,,,,,,,,,,,,,,,,,,,,,,,,,f,001,2021_Jul_02_1155,toilet,2021.1.3,99.95941654023954,
180,0,-4,4,0.85,0,7,7,13,,,,,,,,,,,,,,,179.51454130001366,None,179.51454130001366,None,179.01420760003384,None,f,0.512611799989827,179.51454130001366,None,,,,,,,,,,,,,,,,,,,,,,,,,,,,,f,001,2021_Jul_02_1155,toilet,2021.1.3,99.95941654023954,
180,180,-4,4,0.85,0,8,8,8,,,,,,,,,,,,,,,181.03557290008757,None,181.03557290008757,None,180.53522650001105,None,f,0.47951580001972616,181.03557290008757,None,,,,,,,,,,,,,,,,,,,,,,,,,,,,,f,001,2021_Jul_02_1155,toilet,2021.1.3,99.95941654023954,
0,180,-4,4,0.85,0,9,9,4,,,,,,,,,,,,,,,182.51657780003734,None,182.51657780003734,None,182.01623340009246,None,f,0.5506918999599293,182.51657780003734,None,,,,,,,,,,,,,,,,,,,,,,,,,,,,,f,001,2021_Jul_02_1155,toilet,2021.1.3,99.95941654023954,
180,180,-4,4,1.15,0,10,10,11,,,,,,,,,,,,,,,184.06771420000587,None,184.06771420000587,None,183.56737010006327,None,j,0.47138680005446076,184.06771420000587,None,,,,,,,,,,,,,,,,,,,,,,,,,,,,,f,001,2021_Jul_02_1155,toilet,2021.1.3,99.95941654023954,
0,0,4,-4,1.15,0,11,11,3,,,,,,,,,,,,,,,185.5386201000074,None,185.5386201000074,None,185.03837680001743,None,f,0.4564740000059828,185.5386201000074,None,,,,,,,,,,,,,,,,,,,,,,,,,,,,,f,001,2021_Jul_02_1155,toilet,2021.1.3,99.95941654023954,
180,0,-4,4,1.15,0,12,12,15,,,,,,,,,,,,,,,186.99960950005334,None,186.99960950005334,None,186.49927030003164,None,j,0.45160090003628284,186.99960950005334,None,,,,,,,,,,,,,,,,,,,,,,,,,,,,,f,001,2021_Jul_02_1155,toilet,2021.1.3,99.95941654023954,
180,0,-4,4,1.15,0,13,13,14,,,,,,,,,,,,,,,188.47060880006757,None,188.47060880006757,None,187.97026349999942,None,j,0.4685503999935463,188.47060880006757,None,,,,,,,,,,,,,,,,,,,,,,,,,,,,,f,001,2021_Jul_02_1155,toilet,2021.1.3,99.95941654023954,
0,180,4,-4,0.85,0,14,14,5,,,,,,,,,,,,,,,189.95160900009796,None,189.95160900009796,None,189.45127010007855,None,j,0.49158709996845573,189.95160900009796,None,,,,,,,,,,,,,,,,,,,,,,,,,,,,,f,001,2021_Jul_02_1155,toilet,2021.1.3,99.95941654023954,
180,180,-4,4,0.85,0,15,15,9,,,,,,,,,,,,,,,191.45271790004335,None,191.45271790004335,None,190.9522909000516,None,f,0.4145865000318736,191.45271790004335,None,,,,,,,,,,,,,,,,,,,,,,,,,,,,,f,001,2021_Jul_02_1155,toilet,2021.1.3,99.95941654023954,
180,180,4,-4,1.15,,,,,0,0,0,0,0,0,0,41,,,,,,,,,,,,,,,,,191.89295990008395,None,space,81.44638269999996,191.89295990008395,None,274.358790300088,None,274.358790300088,None,273.8584482000442,None,f,0.4681659999769181,274.358790300088,None,,,,,,,,,,,,,f,001,2021_Jul_02_1155,toilet,2021.1.3,99.95941654023954,
180,180,-4,4,0.94,,,,,0,0,0,0,0,1,1,29,,,,,,,,,,,,,,,,,,,,,,,275.8297765000025,None,275.8297765000025,None,275.3394497000845,None,f,0.4691762999864295,275.8297765000025,None,,,,,,,,,,,,,f,001,2021_Jul_02_1155,toilet,2021.1.3,99.95941654023954,
180,180,-4,4,1.03,,,,,0,0,0,0,0,2,2,32,,,,,,,,,,,,,,,,,,,,,,,277.3107849000953,None,277.3107849000953,None,276.8104452000698,None,j,0.39636130002327263,277.3107849000953,None,,,,,,,,,,,,,f,001,2021_Jul_02_1155,toilet,2021.1.3,99.95941654023954,
180,180,-4,4,1.0,,,,,0,0,0,0,0,3,3,31,,,,,,,,,,,,,,,,,,,,,,,278.7218310000608,None,278.7218310000608,None,278.2214002000401,None,j,1.0972342999884859,278.7218310000608,None,,,,,,,,,,,,,f,001,2021_Jul_02_1155,toilet,2021.1.3,99.95941654023954,
180,180,-4,4,0.97,,,,,0,0,0,0,0,4,4,30,,,,,,,,,,,,,,,,,,,,,,,280.8332041000249,None,280.8332041000249,None,280.33282930008136,None,f,0.601869500009343,280.8332041000249,None,,,,,,,,,,,,,f,001,2021_Jul_02_1155,toilet,2021.1.3,99.95941654023954,
180,0,-4,4,1.06,,,,,0,0,0,0,0,5,5,47,,,,,,,,,,,,,,,,,,,,,,,282.43425859999843,None,282.43425859999843,None,281.93391600006726,None,j,0.4406907999655232,282.43425859999843,None,,,,,,,,,,,,,f,001,2021_Jul_02_1155,toilet,2021.1.3,99.95941654023954,
0,180,4,-4,1.06,,,,,0,0,0,0,0,6,6,26,,,,,,,,,,,,,,,,,,,,,,,283.8752302000066,None,283.8752302000066,None,283.37490110006183,None,f,0.47180369996931404,283.8752302000066,None,,,,,,,,,,,,,f,001,2021_Jul_02_1155,toilet,2021.1.3,99.95941654023954,
0,0,4,-4,1.0,,,,,0,0,0,0,0,7,7,10,,,,,,,,,,,,,,,,,,,,,,,285.35623450006824,None,285.35623450006824,None,284.85589480004273,None,j,0.43073590006679296,285.35623450006824,None,,,,,,,,,,,,,f,001,2021_Jul_02_1155,toilet,2021.1.3,99.95941654023954,
180,180,4,-4,0.85,,,,,0,0,0,0,0,8,8,35,,,,,,,,,,,,,,,,,,,,,,,286.7872972000623,None,286.7872972000623,None,286.2868634000188,None,j,0.48766979994252324,286.7872972000623,None,,,,,,,,,,,,,f,001,2021_Jul_02_1155,toilet,2021.1.3,99.95941654023954,
0,0,4,-4,1.06,,,,,0,0,0,0,0,9,9,12,,,,,,,,,,,,,,,,,,,,,,,288.27825000009034,None,288.27825000009034,None,287.77796219999436,None,f,0.5807334999553859,288.27825000009034,None,,,,,,,,,,,,,f,001,2021_Jul_02_1155,toilet,2021.1.3,99.95941654023954,
180,0,-4,4,1.03,,,,,0,0,0,0,0,10,10,46,,,,,,,,,,,,,,,,,,,,,,,289.8592852000147,None,289.8592852000147,None,289.3589473000029,None,j,0.8397083999589086,289.8592852000147,None,,,,,,,,,,,,,f,001,2021_Jul_02_1155,toilet,2021.1.3,99.95941654023954,
0,180,-4,4,0.97,,,,,0,0,0,0,0,11,11,16,,,,,,,,,,,,,,,,,,,,,,,291.7005287000211,None,291.7005287000211,None,291.2001916000154,None,f,0.7905512999277562,291.7005287000211,None,,,,,,,,,,,,,f,001,2021_Jul_02_1155,toilet,2021.1.3,99.95941654023954,
0,0,4,-4,0.85,,,,,0,0,0,0,0,12,12,7,,,,,,,,,,,,,,,,,,,,,,,293.50175100006163,None,293.50175100006163,None,293.00141430005897,None,j,0.4293072000145912,293.50175100006163,None,,,,,,,,,,,,,f,001,2021_Jul_02_1155,toilet,2021.1.3,99.95941654023954,
180,0,-4,4,0.97,,,,,0,0,0,0,0,13,13,44,,,,,,,,,,,,,,,,,,,,,,,294.9427888999926,None,294.9427888999926,None,294.44238670007326,None,f,2.1881957000587136,294.9427888999926,None,,,,,,,,,,,,,f,001,2021_Jul_02_1155,toilet,2021.1.3,99.95941654023954,
0,0,-4,4,1.15,,,,,0,0,0,0,0,14,14,6,,,,,,,,,,,,,,,,,,,,,,,298.13491560006514,None,298.13491560006514,None,297.6345542999916,None,j,0.42004950006958097,298.13491560006514,None,,,,,,,,,,,,,f,001,2021_Jul_02_1155,toilet,2021.1.3,99.95941654023954,
0,180,-4,4,1.0,,,,,0,0,0,0,0,15,15,17,,,,,,,,,,,,,,,,,,,,,,,299.55585170001723,None,299.55585170001723,None,299.0555494000437,None,j,0.72748080000747,299.55585170001723,None,,,,,,,,,,,,,f,001,2021_Jul_02_1155,toilet,2021.1.3,99.95941654023954,
180,0,4,-4,1.0,,,,,0,0,0,0,0,16,16,52,,,,,,,,,,,,,,,,,,,,,,,301.29703270003665,None,301.29703270003665,None,300.79669400001876,None,f,2.4579208999639377,301.29703270003665,None,,,,,,,,,,,,,f,001,2021_Jul_02_1155,toilet,2021.1.3,99.95941654023954,
0,180,-4,4,1.06,,,,,0,0,0,0,0,17,17,19,,,,,,,,,,,,,,,,,,,,,,,304.7593806000659,None,304.7593806000659,None,304.25904160004575,None,j,0.531823500059545,304.7593806000659,None,,,,,,,,,,,,,f,001,2021_Jul_02_1155,toilet,2021.1.3,99.95941654023954,
0,0,-4,4,1.03,,,,,0,0,0,0,0,18,18,4,,,,,,,,,,,,,,,,,,,,,,,306.2904126000358,None,306.2904126000358,None,305.790079300059,None,j,0.45653649989981204,306.2904126000358,None,,,,,,,,,,,,,f,001,2021_Jul_02_1155,toilet,2021.1.3,99.95941654023954,
0,0,4,-4,0.94,,,,,0,0,0,0,0,19,19,8,,,,,,,,,,,,,,,,,,,,,,,307.7514056999935,None,307.7514056999935,None,307.25106720009353,None,j,0.46767299994826317,307.7514056999935,None,,,,,,,,,,,,,f,001,2021_Jul_02_1155,toilet,2021.1.3,99.95941654023954,
0,0,4,-4,1.03,,,,,0,0,0,0,0,20,20,11,,,,,,,,,,,,,,,,,,,,,,,309.2325034000678,None,309.2325034000678,None,308.73207170004025,None,j,0.7145994999445975,309.2325034000678,None,,,,,,,,,,,,,f,001,2021_Jul_02_1155,toilet,2021.1.3,99.95941654023954,
180,0,4,-4,0.85,,,,,0,0,0,0,0,21,21,49,,,,,,,,,,,,,,,,,,,,,,,310.95357920008246,None,310.95357920008246,None,310.4532554000616,None,j,0.5134916000533849,310.95357920008246,None,,,,,,,,,,,,,f,001,2021_Jul_02_1155,toilet,2021.1.3,99.95941654023954,
180,0,4,-4,1.03,,,,,0,0,0,0,0,22,22,53,,,,,,,,,,,,,,,,,,,,,,,312.4746041999897,None,312.4746041999897,None,311.97426540008746,None,f,1.4083470000186935,312.4746041999897,None,,,,,,,,,,,,,f,001,2021_Jul_02_1155,toilet,2021.1.3,99.95941654023954,
180,180,4,-4,0.97,,,,,0,0,0,0,0,23,23,37,,,,,,,,,,,,,,,,,,,,,,,314.88624080002774,None,314.88624080002774,None,314.38590210000984,None,f,0.6929461999097839,314.88624080002774,None,,,,,,,,,,,,,f,001,2021_Jul_02_1155,toilet,2021.1.3,99.95941654023954,
0,180,-4,4,0.94,,,,,0,0,0,0,0,24,24,15,,,,,,,,,,,,,,,,,,,,,,,316.5973976000678,None,316.5973976000678,None,316.09715940000024,None,f,0.8056515000062063,316.5973976000678,None,,,,,,,,,,,,,f,001,2021_Jul_02_1155,toilet,2021.1.3,99.95941654023954,
0,180,4,-4,1.03,,,,,0,0,0,0,0,25,25,25,,,,,,,,,,,,,,,,,,,,,,,318.41863279999234,None,318.41863279999234,None,317.91829330008477,None,j,1.656376100028865,318.41863279999234,None,,,,,,,,,,,,,f,001,2021_Jul_02_1155,toilet,2021.1.3,99.95941654023954,
0,180,-4,4,1.03,,,,,0,0,0,0,0,26,26,18,,,,,,,,,,,,,,,,,,,,,,,321.09044290008023,None,321.09044290008023,None,320.5901028000517,None,j,1.2246707000304013,321.09044290008023,None,,,,,,,,,,,,,f,001,2021_Jul_02_1155,toilet,2021.1.3,99.95941654023954,
0,0,-4,4,0.94,,,,,0,0,0,0,0,27,27,1,,,,,,,,,,,,,,,,,,,,,,,323.3220317000523,None,323.3220317000523,None,322.83162060007453,None,f,0.5770339999580756,323.3220317000523,None,,,,,,,,,,,,,f,001,2021_Jul_02_1155,toilet,2021.1.3,99.95941654023954,
0,0,-4,4,1.06,,,,,0,0,0,0,0,28,28,5,,,,,,,,,,,,,,,,,,,,,,,324.913063300075,None,324.913063300075,None,324.41278950008564,None,j,0.4900122999679297,324.913063300075,None,,,,,,,,,,,,,f,001,2021_Jul_02_1155,toilet,2021.1.3,99.95941654023954,
180,0,4,-4,1.15,,,,,0,0,0,0,0,29,29,55,,,,,,,,,,,,,,,,,,,,,,,326.40403860004153,None,326.40403860004153,None,325.90370070002973,None,f,0.5348654999397695,326.40403860004153,None,,,,,,,,,,,,,f,001,2021_Jul_02_1155,toilet,2021.1.3,99.95941654023954,
0,180,4,-4,0.85,,,,,0,0,0,0,0,30,30,21,,,,,,,,,,,,,,,,,,,,,,,327.94511159998365,None,327.94511159998365,None,327.44474170007743,None,j,0.5299231000244617,327.94511159998365,None,,,,,,,,,,,,,f,001,2021_Jul_02_1155,toilet,2021.1.3,99.95941654023954,
0,0,4,-4,0.97,,,,,0,0,0,0,0,31,31,9,,,,,,,,,,,,,,,,,,,,,,,329.4861297000898,None,329.4861297000898,None,328.9857885000529,None,j,0.525024599977769,329.4861297000898,None,,,,,,,,,,,,,f,001,2021_Jul_02_1155,toilet,2021.1.3,99.95941654023954,
180,0,-4,4,0.94,,,,,0,0,0,0,0,32,32,43,,,,,,,,,,,,,,,,,,,,,,,331.0272680000635,None,331.0272680000635,None,330.5269133000402,None,f,0.4877521999878809,331.0272680000635,None,,,,,,,,,,,,,f,001,2021_Jul_02_1155,toilet,2021.1.3,99.95941654023954,
0,180,4,-4,0.97,,,,,0,0,0,0,0,33,33,23,,,,,,,,,,,,,,,,,,,,,,,332.5282900000457,None,332.5282900000457,None,332.027949100011,None,j,0.5866310999263078,332.5282900000457,None,,,,,,,,,,,,,f,001,2021_Jul_02_1155,toilet,2021.1.3,99.95941654023954,
180,180,-4,4,0.85,,,,,0,0,0,0,0,34,34,28,,,,,,,,,,,,,,,,,,,,,,,334.1192672000034,None,334.1192672000034,None,333.61892550007906,None,f,0.46767379995435476,334.1192672000034,None,,,,,,,,,,,,,f,001,2021_Jul_02_1155,toilet,2021.1.3,99.95941654023954,
180,0,4,-4,0.97,,,,,0,0,0,0,0,35,35,51,,,,,,,,,,,,,,,,,,,,,,,335.5902596000815,None,335.5902596000815,None,335.0899225000758,None,j,0.5167857999913394,335.5902596000815,None,,,,,,,,,,,,,f,001,2021_Jul_02_1155,toilet,2021.1.3,99.95941654023954,
0,0,-4,4,0.85,,,,,0,0,0,0,0,36,36,0,,,,,,,,,,,,,,,,,,,,,,,337.13130760006607,None,337.13130760006607,None,336.6309688000474,None,f,0.4478800999931991,337.13130760006607,None,,,,,,,,,,,,,f,001,2021_Jul_02_1155,toilet,2021.1.3,99.95941654023954,
0,0,4,-4,1.15,,,,,0,0,0,0,0,37,37,13,,,,,,,,,,,,,,,,,,,,,,,338.5923868000973,None,338.5923868000973,None,338.0919586000964,None,f,0.5547479999950156,338.5923868000973,None,,,,,,,,,,,,,f,001,2021_Jul_02_1155,toilet,2021.1.3,99.95941654023954,
180,180,-4,4,1.06,,,,,0,0,0,0,0,38,38,33,,,,,,,,,,,,,,,,,,,,,,,340.1633632000303,None,340.1633632000303,None,339.6630542000057,None,j,0.423584199976176,340.1633632000303,None,,,,,,,,,,,,,f,001,2021_Jul_02_1155,toilet,2021.1.3,99.95941654023954,
0,180,-4,4,0.85,,,,,0,0,0,0,0,39,39,14,,,,,,,,,,,,,,,,,,,,,,,341.5943335000193,None,341.5943335000193,None,341.0939883000683,None,f,0.41658710001502186,341.5943335000193,None,,,,,,,,,,,,,f,001,2021_Jul_02_1155,toilet,2021.1.3,99.95941654023954,
0,180,4,-4,1.15,,,,,0,0,0,0,0,40,40,27,,,,,,,,,,,,,,,,,,,,,,,343.01529060001485,None,343.01529060001485,None,342.5149515999947,None,f,0.48380739998538047,343.01529060001485,None,,,,,,,,,,,,,f,001,2021_Jul_02_1155,toilet,2021.1.3,99.95941654023954,
180,0,-4,4,1.0,,,,,0,0,0,0,0,41,41,45,,,,,,,,,,,,,,,,,,,,,,,344.5163094000891,None,344.5163094000891,None,344.0159684000537,None,j,0.48678090004250407,344.5163094000891,None,,,,,,,,,,,,,f,001,2021_Jul_02_1155,toilet,2021.1.3,99.95941654023954,
180,180,4,-4,1.03,,,,,0,0,0,0,0,42,42,39,,,,,,,,,,,,,,,,,,,,,,,346.0274160000263,None,346.0274160000263,None,345.52700320002623,None,f,0.5916297000367194,346.0274160000263,None,,,,,,,,,,,,,f,001,2021_Jul_02_1155,toilet,2021.1.3,99.95941654023954,
180,180,4,-4,1.0,,,,,0,0,0,0,0,43,43,38,,,,,,,,,,,,,,,,,,,,,,,347.6284198000794,None,347.6284198000794,None,347.1281153000891,None,j,0.49455880001187325,347.6284198000794,None,,,,,,,,,,,,,f,001,2021_Jul_02_1155,toilet,2021.1.3,99.95941654023954,
180,0,-4,4,1.15,,,,,0,0,0,0,0,44,44,48,,,,,,,,,,,,,,,,,,,,,,,349.12943339999765,None,349.12943339999765,None,348.62909529998433,None,j,0.41751319996546954,349.12943339999765,None,,,,,,,,,,,,,f,001,2021_Jul_02_1155,toilet,2021.1.3,99.95941654023954,
0,0,-4,4,1.0,,,,,0,0,0,0,0,45,45,3,,,,,,,,,,,,,,,,,,,,,,,350.56040650000796,None,350.56040650000796,None,350.0600668999832,None,f,0.47467659995891154,350.56040650000796,None,,,,,,,,,,,,,f,001,2021_Jul_02_1155,toilet,2021.1.3,99.95941654023954,
180,180,4,-4,1.06,,,,,0,0,0,0,0,46,46,40,,,,,,,,,,,,,,,,,,,,,,,352.0614196000388,None,352.0614196000388,None,351.5610785000026,None,f,0.46168690000195056,352.0614196000388,None,,,,,,,,,,,,,f,001,2021_Jul_02_1155,toilet,2021.1.3,99.95941654023954,
180,180,4,-4,0.94,,,,,0,0,0,0,0,47,47,36,,,,,,,,,,,,,,,,,,,,,,,353.5325061000185,None,353.5325061000185,None,353.0320756000001,None,j,0.43068590003531426,353.5325061000185,None,,,,,,,,,,,,,f,001,2021_Jul_02_1155,toilet,2021.1.3,99.95941654023954,
0,180,4,-4,0.94,,,,,0,0,0,0,0,48,48,22,,,,,,,,,,,,,,,,,,,,,,,354.97339330008253,None,354.97339330008253,None,354.4730906999903,None,j,0.5255380000453442,354.97339330008253,None,,,,,,,,,,,,,f,001,2021_Jul_02_1155,toilet,2021.1.3,99.95941654023954,
0,0,-4,4,0.97,,,,,0,0,0,0,0,49,49,2,,,,,,,,,,,,,,,,,,,,,,,356.50443289999384,None,356.50443289999384,None,356.0040873000398,None,f,0.43450179998762906,356.50443289999384,None,,,,,,,,,,,,,f,001,2021_Jul_02_1155,toilet,2021.1.3,99.95941654023954,
180,180,-4,4,1.15,,,,,0,0,0,0,0,50,50,34,,,,,,,,,,,,,,,,,,,,,,,357.94540630001575,None,357.94540630001575,None,357.4450934000779,None,j,0.36955699999816716,357.94540630001575,None,,,,,,,,,,,,,f,001,2021_Jul_02_1155,toilet,2021.1.3,99.95941654023954,
180,0,4,-4,0.94,,,,,0,0,0,0,0,51,51,50,,,,,,,,,,,,,,,,,,,,,,,359.316336399992,None,359.316336399992,None,358.82600360002834,None,j,0.4067388999974355,359.316336399992,None,,,,,,,,,,,,,f,001,2021_Jul_02_1155,toilet,2021.1.3,99.95941654023954,
180,0,-4,4,0.85,,,,,0,0,0,0,0,52,52,42,,,,,,,,,,,,,,,,,,,,,,,360.74740870005917,None,360.74740870005917,None,360.24696240003686,None,f,0.4316417999798432,360.74740870005917,None,,,,,,,,,,,,,f,001,2021_Jul_02_1155,toilet,2021.1.3,99.95941654023954,
0,180,-4,4,1.15,,,,,0,0,0,0,0,53,53,20,,,,,,,,,,,,,,,,,,,,,,,362.19828520005103,None,362.19828520005103,None,361.69796460005455,None,j,0.38856330001726747,362.19828520005103,None,,,,,,,,,,,,,f,001,2021_Jul_02_1155,toilet,2021.1.3,99.95941654023954,
0,180,4,-4,1.0,,,,,0,0,0,0,0,54,54,24,,,,,,,,,,,,,,,,,,,,,,,363.5892326000612,None,363.5892326000612,None,363.088893200038,None,f,0.38967820000834763,363.5892326000612,None,,,,,,,,,,,,,f,001,2021_Jul_02_1155,toilet,2021.1.3,99.95941654023954,
180,0,4,-4,1.06,,,,,0,0,0,0,0,55,55,54,,,,,,,,,,,,,,,,,,,,,,,364.9801683999831,None,364.9801683999831,None,364.4798315000953,None,f,0.6149096000008285,364.9801683999831,None,,,,,,,,,,,,,f,001,2021_Jul_02_1155,toilet,2021.1.3,99.95941654023954,
0,180,-4,4,1.03,,,,,0,0,0,0,1,0,56,18,,,,,,,,,,,,,,,,,,,,,,,366.6112722000107,None,366.6112722000107,None,366.11093550000805,None,j,0.551800400018692,366.6112722000107,None,,,,,,,,,,,,,f,001,2021_Jul_02_1155,toilet,2021.1.3,99.95941654023954,
0,0,4,-4,0.85,,,,,0,0,0,0,1,1,57,7,,,,,,,,,,,,,,,,,,,,,,,368.1724207000807,None,368.1724207000807,None,367.67208879999816,None,j,0.4146389999659732,368.1724207000807,None,,,,,,,,,,,,,f,001,2021_Jul_02_1155,toilet,2021.1.3,99.95941654023954,
0,180,4,-4,1.15,,,,,0,0,0,0,1,2,58,27,,,,,,,,,,,,,,,,,,,,,,,369.6032996000722,None,369.6032996000722,None,369.10305210005026,None,f,0.4396864000009373,369.6032996000722,None,,,,,,,,,,,,,f,001,2021_Jul_02_1155,toilet,2021.1.3,99.95941654023954,
180,0,-4,4,0.97,,,,,0,0,0,0,1,3,59,44,,,,,,,,,,,,,,,,,,,,,,,371.0442795000272,None,371.0442795000272,None,370.54394170001615,None,j,0.4548483999678865,371.0442795000272,None,,,,,,,,,,,,,f,001,2021_Jul_02_1155,toilet,2021.1.3,99.95941654023954,
180,0,-4,4,1.03,,,,,0,0,0,0,1,4,60,46,,,,,,,,,,,,,,,,,,,,,,,372.52528390008956,None,372.52528390008956,None,372.0249412000412,None,j,0.6216055999975652,372.52528390008956,None,,,,,,,,,,,,,f,001,2021_Jul_02_1155,toilet,2021.1.3,99.95941654023954,
180,0,4,-4,1.03,,,,,0,0,0,0,1,5,61,53,,,,,,,,,,,,,,,,,,,,,,,374.156383600086,None,374.156383600086,None,373.6560475000879,None,f,0.6705986000597477,374.156383600086,None,,,,,,,,,,,,,f,001,2021_Jul_02_1155,toilet,2021.1.3,99.95941654023954,
180,180,-4,4,0.97,,,,,0,0,0,0,1,6,62,30,,,,,,,,,,,,,,,,,,,,,,,375.837525100098,None,375.837525100098,None,375.3372702000197,None,f,0.5735119000310078,375.837525100098,None,,,,,,,,,,,,,f,001,2021_Jul_02_1155,toilet,2021.1.3,99.95941654023954,
0,180,4,-4,0.97,,,,,0,0,0,0,1,7,63,23,,,,,,,,,,,,,,,,,,,,,,,377.42860590002965,None,377.42860590002965,None,376.9282694000285,None,j,0.4543000999838114,377.42860590002965,None,,,,,,,,,,,,,f,001,2021_Jul_02_1155,toilet,2021.1.3,99.95941654023954,
180,180,-4,4,1.15,,,,,0,0,0,0,1,8,64,34,,,,,,,,,,,,,,,,,,,,,,,378.88959440006875,None,378.88959440006875,None,378.3892517000204,None,j,0.38529150001704693,378.88959440006875,None,,,,,,,,,,,,,f,001,2021_Jul_02_1155,toilet,2021.1.3,99.95941654023954,
180,0,4,-4,0.85,,,,,0,0,0,0,1,9,65,49,,,,,,,,,,,,,,,,,,,,,,,380.2905388000654,None,380.2905388000654,None,379.79020440008026,None,j,0.4564983000745997,380.2905388000654,None,,,,,,,,,,,,,f,001,2021_Jul_02_1155,toilet,2021.1.3,99.95941654023954,
180,180,4,-4,1.03,,,,,0,0,0,0,1,10,66,39,,,,,,,,,,,,,,,,,,,,,,,381.77155260008294,None,381.77155260008294,None,381.27120479999576,None,f,0.4635019999695942,381.77155260008294,None,,,,,,,,,,,,,f,001,2021_Jul_02_1155,toilet,2021.1.3,99.95941654023954,
180,0,4,-4,1.0,,,,,0,0,0,0,1,11,67,52,,,,,,,,,,,,,,,,,,,,,,,383.26260480005294,None,383.26260480005294,None,382.7622530000517,None,j,0.8763531999429688,383.26260480005294,None,,,,,,,,,,,,,f,001,2021_Jul_02_1155,toilet,2021.1.3,99.95941654023954,
180,180,-4,4,1.0,,,,,0,0,0,0,1,12,68,31,,,,,,,,,,,,,,,,,,,,,,,385.14382580004167,None,385.14382580004167,None,384.64348870003596,None,f,0.7550648999167606,385.14382580004167,None,,,,,,,,,,,,,f,001,2021_Jul_02_1155,toilet,2021.1.3,99.95941654023954,
180,180,-4,4,0.85,,,,,0,0,0,0,1,13,69,28,,,,,,,,,,,,,,,,,,,,,,,386.9050285000121,None,386.9050285000121,None,386.4046876000939,None,f,0.4819279999937862,386.9050285000121,None,,,,,,,,,,,,,f,001,2021_Jul_02_1155,toilet,2021.1.3,99.95941654023954,
0,180,-4,4,0.85,,,,,0,0,0,0,1,14,70,14,,,,,,,,,,,,,,,,,,,,,,,388.3860248000128,None,388.3860248000128,None,387.8856823000824,None,f,0.4408717999467626,388.3860248000128,None,,,,,,,,,,,,,f,001,2021_Jul_02_1155,toilet,2021.1.3,99.95941654023954,
0,0,-4,4,0.94,,,,,0,0,0,0,1,15,71,1,,,,,,,,,,,,,,,,,,,,,,,389.8370865000179,None,389.8370865000179,None,389.3366658000741,None,j,0.4458734999643639,389.8370865000179,None,,,,,,,,,,,,,f,001,2021_Jul_02_1155,toilet,2021.1.3,99.95941654023954,
0,180,-4,4,1.15,,,,,0,0,0,0,1,16,72,20,,,,,,,,,,,,,,,,,,,,,,,391.2880289000459,None,391.2880289000459,None,390.7877352000214,None,j,0.45084800000768155,391.2880289000459,None,,,,,,,,,,,,,f,001,2021_Jul_02_1155,toilet,2021.1.3,99.95941654023954,
0,0,4,-4,1.0,,,,,0,0,0,0,1,17,73,10,,,,,,,,,,,,,,,,,,,,,,,392.73897679999936,None,392.73897679999936,None,392.2386640000623,None,j,0.4879137999378145,392.73897679999936,None,,,,,,,,,,,,,f,001,2021_Jul_02_1155,toilet,2021.1.3,99.95941654023954,
0,0,4,-4,1.03,,,,,0,0,0,0,1,18,74,11,,,,,,,,,,,,,,,,,,,,,,,394.2299826000817,None,394.2299826000817,None,393.72964040003717,None,f,0.7729173999978229,394.2299826000817,None,,,,,,,,,,,,,f,001,2021_Jul_02_1155,toilet,2021.1.3,99.95941654023954,
0,180,-4,4,1.06,,,,,0,0,0,0,1,19,75,19,,,,,,,,,,,,,,,,,,,,,,,396.0111884000944,None,396.0111884000944,None,395.5108494000742,None,j,0.4797229999676347,396.0111884000944,None,,,,,,,,,,,,,f,001,2021_Jul_02_1155,toilet,2021.1.3,99.95941654023954,
180,0,-4,4,0.94,,,,,0,0,0,0,1,20,76,43,,,,,,,,,,,,,,,,,,,,,,,397.502307799994,None,397.502307799994,None,397.0018608000828,None,f,0.5245424000313506,397.502307799994,None,,,,,,,,,,,,,f,001,2021_Jul_02_1155,toilet,2021.1.3,99.95941654023954,
0,0,-4,4,0.97,,,,,0,0,0,0,1,21,77,2,,,,,,,,,,,,,,,,,,,,,,,399.0332388000097,None,399.0332388000097,None,398.5329824000364,None,j,0.76958670001477,399.0332388000097,None,,,,,,,,,,,,,f,001,2021_Jul_02_1155,toilet,2021.1.3,99.95941654023954,
0,0,4,-4,1.06,,,,,0,0,0,0,1,22,78,12,,,,,,,,,,,,,,,,,,,,,,,400.80443850008305,None,400.80443850008305,None,400.3040973000461,None,f,0.7746586999855936,400.80443850008305,None,,,,,,,,,,,,,f,001,2021_Jul_02_1155,toilet,2021.1.3,99.95941654023954,
180,180,-4,4,1.06,,,,,0,0,0,0,1,23,79,33,,,,,,,,,,,,,,,,,,,,,,,402.60565650009084,None,402.60565650009084,None,402.1053146000486,None,j,0.5253739000763744,402.60565650009084,None,,,,,,,,,,,,,f,001,2021_Jul_02_1155,toilet,2021.1.3,99.95941654023954,
0,0,-4,4,1.06,,,,,0,0,0,0,1,24,80,5,,,,,,,,,,,,,,,,,,,,,,,404.1567043000832,None,404.1567043000832,None,403.65645690006204,None,j,0.5101942999754101,404.1567043000832,None,,,,,,,,,,,,,f,001,2021_Jul_02_1155,toilet,2021.1.3,99.95941654023954,
0,0,4,-4,0.94,,,,,0,0,0,0,1,25,81,8,,,,,,,,,,,,,,,,,,,,,,,405.67781660007313,None,405.67781660007313,None,405.1774063000921,None,j,0.6211797998985276,405.67781660007313,None,,,,,,,,,,,,,f,001,2021_Jul_02_1155,toilet,2021.1.3,99.95941654023954,
0,180,4,-4,1.0,,,,,0,0,0,0,1,26,82,24,,,,,,,,,,,,,,,,,,,,,,,407.2988375000423,None,407.2988375000423,None,406.7984953999985,None,f,0.9680080999387428,407.2988375000423,None,,,,,,,,,,,,,f,001,2021_Jul_02_1155,toilet,2021.1.3,99.95941654023954,
0,0,4,-4,0.97,,,,,0,0,0,0,1,27,83,9,,,,,,,,,,,,,,,,,,,,,,,409.2701711000409,None,409.2701711000409,None,408.76983150001615,None,j,0.564920499920845,409.2701711000409,None,,,,,,,,,,,,,f,001,2021_Jul_02_1155,toilet,2021.1.3,99.95941654023954,
0,180,-4,4,0.94,,,,,0,0,0,0,1,28,84,15,,,,,,,,,,,,,,,,,,,,,,,410.8512389000971,None,410.8512389000971,None,410.35090469999705,None,f,1.25579900003504,410.8512389000971,None,,,,,,,,,,,,,f,001,2021_Jul_02_1155,toilet,2021.1.3,99.95941654023954,
180,180,4,-4,1.06,,,,,0,0,0,0,1,29,85,40,,,,,,,,,,,,,,,,,,,,,,,413.12286330002826,None,413.12286330002826,None,412.6224802000215,None,f,0.6159976000199094,413.12286330002826,None,,,,,,,,,,,,,f,001,2021_Jul_02_1155,toilet,2021.1.3,99.95941654023954,
0,180,4,-4,1.06,,,,,0,0,0,0,1,30,86,26,,,,,,,,,,,,,,,,,,,,,,,414.7438762000529,None,414.7438762000529,None,414.2435409000609,None,f,1.0590235000709072,414.7438762000529,None,,,,,,,,,,,,,f,001,2021_Jul_02_1155,toilet,2021.1.3,99.95941654023954,
0,0,4,-4,1.15,,,,,0,0,0,0,1,31,87,13,,,,,,,,,,,,,,,,,,,,,,,416.805279500084,None,416.805279500084,None,416.3049323000014,None,f,0.5817715000594035,416.805279500084,None,,,,,,,,,,,,,f,001,2021_Jul_02_1155,toilet,2021.1.3,99.95941654023954,
180,180,4,-4,1.15,,,,,0,0,0,0,1,32,88,41,,,,,,,,,,,,,,,,,,,,,,,418.3964489999926,None,418.3964489999926,None,417.8960146000609,None,f,0.47840790008194745,418.3964489999926,None,,,,,,,,,,,,,f,001,2021_Jul_02_1155,toilet,2021.1.3,99.95941654023954,
0,180,4,-4,0.85,,,,,0,0,0,0,1,33,89,21,,,,,,,,,,,,,,,,,,,,,,,419.8774388000602,None,419.8774388000602,None,419.3770906000864,None,j,0.43736880004871637,419.8774388000602,None,,,,,,,,,,,,,f,001,2021_Jul_02_1155,toilet,2021.1.3,99.95941654023954,
0,180,4,-4,1.03,,,,,0,0,0,0,1,34,90,25,,,,,,,,,,,,,,,,,,,,,,,421.3183317000512,None,421.3183317000512,None,420.818030100083,None,f,1.4126071000937372,421.3183317000512,None,,,,,,,,,,,,,f,001,2021_Jul_02_1155,toilet,2021.1.3,99.95941654023954,
180,0,4,-4,1.15,,,,,0,0,0,0,1,35,91,55,,,,,,,,,,,,,,,,,,,,,,,423.7399664000841,None,423.7399664000841,None,423.23963580001146,None,f,0.7189615999814123,423.7399664000841,None,,,,,,,,,,,,,f,001,2021_Jul_02_1155,toilet,2021.1.3,99.95941654023954,
180,180,4,-4,0.85,,,,,0,0,0,0,1,36,92,35,,,,,,,,,,,,,,,,,,,,,,,425.47114160005003,None,425.47114160005003,None,424.9708043000428,None,j,0.5238613000838086,425.47114160005003,None,,,,,,,,,,,,,f,001,2021_Jul_02_1155,toilet,2021.1.3,99.95941654023954,
180,0,-4,4,1.06,,,,,0,0,0,0,1,37,93,47,,,,,,,,,,,,,,,,,,,,,,,427.0121899000369,None,427.0121899000369,None,426.5119358000811,None,j,0.6628176999511197,427.0121899000369,None,,,,,,,,,,,,,f,001,2021_Jul_02_1155,toilet,2021.1.3,99.95941654023954,
180,180,4,-4,0.97,,,,,0,0,0,0,1,38,94,37,,,,,,,,,,,,,,,,,,,,,,,428.6933246999979,None,428.6933246999979,None,428.19302130001597,None,j,0.5495049000019208,428.6933246999979,None,,,,,,,,,,,,,f,001,2021_Jul_02_1155,toilet,2021.1.3,99.95941654023954,
180,0,4,-4,0.94,,,,,0,0,0,0,1,39,95,50,,,,,,,,,,,,,,,,,,,,,,,430.24437650002073,None,430.24437650002073,None,429.7440384000074,None,j,0.6304584000026807,430.24437650002073,None,,,,,,,,,,,,,f,001,2021_Jul_02_1155,toilet,2021.1.3,99.95941654023954,
0,0,-4,4,1.03,,,,,0,0,0,0,1,40,96,4,,,,,,,,,,,,,,,,,,,,,,,431.87547800003085,None,431.87547800003085,None,431.37514560006093,None,j,0.5514587999787182,431.87547800003085,None,,,,,,,,,,,,,f,001,2021_Jul_02_1155,toilet,2021.1.3,99.95941654023954,
0,0,-4,4,1.15,,,,,0,0,0,0,1,41,97,6,,,,,,,,,,,,,,,,,,,,,,,433.4365425000433,None,433.4365425000433,None,432.93619869998656,None,j,0.5424521999666467,433.4365425000433,None,,,,,,,,,,,,,f,001,2021_Jul_02_1155,toilet,2021.1.3,99.95941654023954,
180,0,4,-4,0.97,,,,,0,0,0,0,1,42,98,51,,,,,,,,,,,,,,,,,,,,,,,435.0076914000092,None,435.0076914000092,None,434.507262900006,None,j,1.2432181000476703,435.0076914000092,None,,,,,,,,,,,,,f,001,2021_Jul_02_1155,toilet,2021.1.3,99.95941654023954,
180,180,4,-4,0.94,,,,,0,0,0,0,1,43,99,36,,,,,,,,,,,,,,,,,,,,,,,437.2591326000402,None,437.2591326000402,None,436.7587913000025,None,j,1.5996920999605209,437.2591326000402,None,,,,,,,,,,,,,f,001,2021_Jul_02_1155,toilet,2021.1.3,99.95941654023954,
0,0,-4,4,0.85,,,,,0,0,0,0,1,44,100,0,,,,,,,,,,,,,,,,,,,,,,,439.86088789999485,None,439.86088789999485,None,439.36055290000513,None,f,0.5499463999876752,439.86088789999485,None,,,,,,,,,,,,,f,001,2021_Jul_02_1155,toilet,2021.1.3,99.95941654023954,
0,180,-4,4,1.0,,,,,0,0,0,0,1,45,101,17,,,,,,,,,,,,,,,,,,,,,,,441.4120343000395,None,441.4120343000395,None,440.91160089999903,None,j,1.942853800021112,441.4120343000395,None,,,,,,,,,,,,,f,001,2021_Jul_02_1155,toilet,2021.1.3,99.95941654023954,
180,180,-4,4,0.94,,,,,0,0,0,0,1,46,102,29,,,,,,,,,,,,,,,,,,,,,,,444.36393800005317,None,444.36393800005317,None,443.86360450007487,None,f,0.6229824998881668,444.36393800005317,None,,,,,,,,,,,,,f,001,2021_Jul_02_1155,toilet,2021.1.3,99.95941654023954,
180,180,-4,4,1.03,,,,,0,0,0,0,1,47,103,32,,,,,,,,,,,,,,,,,,,,,,,445.99504860001616,None,445.99504860001616,None,445.4947034000652,None,j,1.0081129999598488,445.99504860001616,None,,,,,,,,,,,,,f,001,2021_Jul_02_1155,toilet,2021.1.3,99.95941654023954,
180,0,4,-4,1.06,,,,,0,0,0,0,1,48,104,54,,,,,,,,,,,,,,,,,,,,,,,448.0164116000524,None,448.0164116000524,None,447.5160729000345,None,f,1.1145723001100123,448.0164116000524,None,,,,,,,,,,,,,f,001,2021_Jul_02_1155,toilet,2021.1.3,99.95941654023954,
180,0,-4,4,1.0,,,,,0,0,0,0,1,49,105,45,,,,,,,,,,,,,,,,,,,,,,,450.1478619000409,None,450.1478619000409,None,449.6476060000714,None,j,0.9989099999656901,450.1478619000409,None,,,,,,,,,,,,,f,001,2021_Jul_02_1155,toilet,2021.1.3,99.95941654023954,
180,0,-4,4,1.15,,,,,0,0,0,0,1,50,106,48,,,,,,,,,,,,,,,,,,,,,,,452.14921770000365,None,452.14921770000365,None,451.6488737000618,None,j,0.549726799945347,452.14921770000365,None,,,,,,,,,,,,,f,001,2021_Jul_02_1155,toilet,2021.1.3,99.95941654023954,
180,180,4,-4,1.0,,,,,0,0,0,0,1,51,107,38,,,,,,,,,,,,,,,,,,,,,,,453.7102685000282,None,453.7102685000282,None,453.20993170002475,None,f,1.9167035999707878,453.7102685000282,None,,,,,,,,,,,,,f,001,2021_Jul_02_1155,toilet,2021.1.3,99.95941654023954,
0,180,-4,4,0.97,,,,,0,0,0,0,1,52,108,16,,,,,,,,,,,,,,,,,,,,,,,456.6523583000526,None,456.6523583000526,None,456.15192760003265,None,f,0.5905107000144199,456.6523583000526,None,,,,,,,,,,,,,f,001,2021_Jul_02_1155,toilet,2021.1.3,99.95941654023954,
0,180,4,-4,0.94,,,,,0,0,0,0,1,53,109,22,,,,,,,,,,,,,,,,,,,,,,,458.2433428000659,None,458.2433428000659,None,457.7431078000227,None,j,0.5194784000050277,458.2433428000659,None,,,,,,,,,,,,,f,001,2021_Jul_02_1155,toilet,2021.1.3,99.95941654023954,
0,0,-4,4,1.0,,,,,0,0,0,0,1,54,110,3,,,,,,,,,,,,,,,,,,,,,,,459.7643753000302,None,459.7643753000302,None,459.2640357000055,None,j,1.5266021999996156,459.7643753000302,None,,,,,,,,,,,,,f,001,2021_Jul_02_1155,toilet,2021.1.3,99.95941654023954,
180,0,-4,4,0.85,,,,,0,0,0,0,1,55,111,42,,,,,,,,,,,,,,,,,,,,,,,462.3161025000736,None,462.3161025000736,None,461.81573470006697,None,f,0.9108229000121355,462.3161025000736,None,,,,,,,,,,,,,f,001,2021_Jul_02_1155,toilet,2021.1.3,99.95941654023954,
,,,,,,,,,0,0,0,0,,,,,,,,,,,,,,,,,,,,,,,,,,,,,,,,,,,,,463.2367416000925,None,space,11.670157000073232,463.2367416000925,None,,,,,,,f,001,2021_Jul_02_1155,toilet,2021.1.3,99.95941654023954,
180,180,-4,4,0.97,,,,,1,0,1,0,0,0,0,30,,,,,,,,,,,,,,,,,474.9246362000704,None,space,6.398242100025527,474.9246362000704,None,482.3396601000568,None,482.3396601000568,None,481.83932830009144,None,f,0.8391973000252619,482.3396601000568,None,,,,,,,,,,,,,f,001,2021_Jul_02_1155,toilet,2021.1.3,99.95941654023954,
180,0,4,-4,1.03,,,,,1,0,1,0,0,1,1,53,,,,,,,,,,,,,,,,,,,,,,,484.19091870007105,None,484.19091870007105,None,483.6905752000166,None,j,0.5719609999796376,484.19091870007105,None,,,,,,,,,,,,,f,001,2021_Jul_02_1155,toilet,2021.1.3,99.95941654023954,
0,0,4,-4,0.85,,,,,1,0,1,0,0,2,2,7,,,,,,,,,,,,,,,,,,,,,,,485.7819921000628,None,485.7819921000628,None,485.28169620002154,None,j,0.436871400102973,485.7819921000628,None,,,,,,,,,,,,,f,001,2021_Jul_02_1155,toilet,2021.1.3,99.95941654023954,
180,0,-4,4,1.03,,,,,1,0,1,0,0,3,3,46,,,,,,,,,,,,,,,,,,,,,,,487.232988200034,None,487.232988200034,None,486.7327168000629,None,f,0.7939206999726593,487.232988200034,None,,,,,,,,,,,,,f,001,2021_Jul_02_1155,toilet,2021.1.3,99.95941654023954,
0,0,4,-4,0.97,,,,,1,0,1,0,0,4,4,9,,,,,,,,,,,,,,,,,,,,,,,489.03419370006304,None,489.03419370006304,None,488.53385840007104,None,j,0.4806185000343248,489.03419370006304,None,,,,,,,,,,,,,f,001,2021_Jul_02_1155,toilet,2021.1.3,99.95941654023954,
0,0,-4,4,1.03,,,,,1,0,1,0,0,5,5,4,,,,,,,,,,,,,,,,,,,,,,,490.5152007000288,None,490.5152007000288,None,490.0148644000292,None,j,0.5997061999514699,490.5152007000288,None,,,,,,,,,,,,,f,001,2021_Jul_02_1155,toilet,2021.1.3,99.95941654023954,
180,180,-4,4,1.06,,,,,1,0,1,0,0,6,6,33,,,,,,,,,,,,,,,,,,,,,,,492.1262936000712,None,492.1262936000712,None,491.62595200003125,None,j,0.5246336000273004,492.1262936000712,None,,,,,,,,,,,,,f,001,2021_Jul_02_1155,toilet,2021.1.3,99.95941654023954,
0,180,4,-4,1.0,,,,,1,0,1,0,0,7,7,24,,,,,,,,,,,,,,,,,,,,,,,493.66733920003753,None,493.66733920003753,None,493.1670892999973,None,j,1.0474602999165654,493.66733920003753,None,,,,,,,,,,,,,f,001,2021_Jul_02_1155,toilet,2021.1.3,99.95941654023954,
0,180,4,-4,0.94,,,,,1,0,1,0,0,8,8,22,,,,,,,,,,,,,,,,,,,,,,,495.71873000008054,None,495.71873000008054,None,495.21838169998955,None,j,0.5800552000291646,495.71873000008054,None,,,,,,,,,,,,,f,001,2021_Jul_02_1155,toilet,2021.1.3,99.95941654023954,
180,0,-4,4,1.06,,,,,1,0,1,0,0,9,9,47,,,,,,,,,,,,,,,,,,,,,,,497.2997916000895,None,497.2997916000895,None,496.79946060001384,None,j,0.6149672999745235,497.2997916000895,None,,,,,,,,,,,,,f,001,2021_Jul_02_1155,toilet,2021.1.3,99.95941654023954,
180,0,4,-4,1.15,,,,,1,0,1,0,0,10,10,55,,,,,,,,,,,,,,,,,,,,,,,498.9209164000349,None,498.9209164000349,None,498.42055070004426,None,f,0.5620145999127999,498.9209164000349,None,,,,,,,,,,,,,f,001,2021_Jul_02_1155,toilet,2021.1.3,99.95941654023954,
180,180,4,-4,0.94,,,,,1,0,1,0,0,11,11,36,,,,,,,,,,,,,,,,,,,,,,,500.511971800006,None,500.511971800006,None,500.0117101999931,None,j,0.47494049998931587,500.511971800006,None,,,,,,,,,,,,,f,001,2021_Jul_02_1155,toilet,2021.1.3,99.95941654023954,
0,180,4,-4,0.85,,,,,1,0,1,0,0,12,12,21,,,,,,,,,,,,,,,,,,,,,,,502.00298140000086,None,502.00298140000086,None,501.50271320005413,None,j,0.4557718000141904,502.00298140000086,None,,,,,,,,,,,,,f,001,2021_Jul_02_1155,toilet,2021.1.3,99.95941654023954,
0,0,4,-4,0.94,,,,,1,0,1,0,0,13,13,8,,,,,,,,,,,,,,,,,,,,,,,503.4639693000354,None,503.4639693000354,None,502.96363050001673,None,j,0.722918099956587,503.4639693000354,None,,,,,,,,,,,,,f,001,2021_Jul_02_1155,toilet,2021.1.3,99.95941654023954,
0,0,-4,4,1.06,,,,,1,0,1,0,0,14,14,5,,,,,,,,,,,,,,,,,,,,,,,505.19514160009567,None,505.19514160009567,None,504.7048086000141,None,j,0.4957416000543162,505.19514160009567,None,,,,,,,,,,,,,f,001,2021_Jul_02_1155,toilet,2021.1.3,99.95941654023954,
0,180,-4,4,1.06,,,,,1,0,1,0,0,15,15,19,,,,,,,,,,,,,,,,,,,,,,,506.70616440009326,None,506.70616440009326,None,506.20583920006175,None,j,0.5367699000053108,506.70616440009326,None,,,,,,,,,,,,,f,001,2021_Jul_02_1155,toilet,2021.1.3,99.95941654023954,
0,180,-4,4,0.97,,,,,1,0,1,0,0,16,16,16,,,,,,,,,,,,,,,,,,,,,,,508.26729830005206,None,508.26729830005206,None,507.7668444000883,None,f,0.5914431000128388,508.26729830005206,None,,,,,,,,,,,,,f,001,2021_Jul_02_1155,toilet,2021.1.3,99.95941654023954,
0,0,4,-4,1.15,,,,,1,0,1,0,0,17,17,13,,,,,,,,,,,,,,,,,,,,,,,509.8582998000784,None,509.8582998000784,None,509.3579776000697,None,f,0.5684059000341222,509.8582998000784,None,,,,,,,,,,,,,f,001,2021_Jul_02_1155,toilet,2021.1.3,99.95941654023954,
180,180,4,-4,1.03,,,,,1,0,1,0,0,18,18,39,,,,,,,,,,,,,,,,,,,,,,,511.4293618000811,None,511.4293618000811,None,510.9290237000678,None,f,0.9977013000752777,511.4293618000811,None,,,,,,,,,,,,,f,001,2021_Jul_02_1155,toilet,2021.1.3,99.95941654023954,
0,0,-4,4,0.94,,,,,1,0,1,0,0,19,19,1,,,,,,,,,,,,,,,,,,,,,,,513.4407234000973,None,513.4407234000973,None,512.9403861000901,None,j,1.1300581999821588,513.4407234000973,None,,,,,,,,,,,,,f,001,2021_Jul_02_1155,toilet,2021.1.3,99.95941654023954,
0,180,4,-4,1.06,,,,,1,0,1,0,0,20,20,26,,,,,,,,,,,,,,,,,,,,,,,515.5822605000576,None,515.5822605000576,None,515.081838299986,None,f,0.8126571999164298,515.5822605000576,None,,,,,,,,,,,,,f,001,2021_Jul_02_1155,toilet,2021.1.3,99.95941654023954,
0,0,-4,4,1.15,,,,,1,0,1,0,0,21,21,6,,,,,,,,,,,,,,,,,,,,,,,517.4134457000764,None,517.4134457000764,None,516.913080300088,None,j,0.4534041000297293,517.4134457000764,None,,,,,,,,,,,,,f,001,2021_Jul_02_1155,toilet,2021.1.3,99.95941654023954,
180,0,4,-4,0.85,,,,,1,0,1,0,0,22,22,49,,,,,,,,,,,,,,,,,,,,,,,518.8744178999914,None,518.8744178999914,None,518.374065100099,None,j,0.4484543000580743,518.8744178999914,None,,,,,,,,,,,,,f,001,2021_Jul_02_1155,toilet,2021.1.3,99.95941654023954,
0,0,-4,4,0.85,,,,,1,0,1,0,0,23,23,0,,,,,,,,,,,,,,,,,,,,,,,520.3354270000709,None,520.3354270000709,None,519.8350597000681,None,f,0.4435113000217825,520.3354270000709,None,,,,,,,,,,,,,f,001,2021_Jul_02_1155,toilet,2021.1.3,99.95941654023954,
180,180,4,-4,0.85,,,,,1,0,1,0,0,24,24,35,,,,,,,,,,,,,,,,,,,,,,,521.8063920000568,None,521.8063920000568,None,521.3060552000534,None,j,0.42843359999824315,521.8063920000568,None,,,,,,,,,,,,,f,001,2021_Jul_02_1155,toilet,2021.1.3,99.95941654023954,
0,180,4,-4,1.03,,,,,1,0,1,0,0,25,25,25,,,,,,,,,,,,,,,,,,,,,,,523.2473693999927,None,523.2473693999927,None,522.7471130000195,None,f,0.4755280000390485,523.2473693999927,None,,,,,,,,,,,,,f,001,2021_Jul_02_1155,toilet,2021.1.3,99.95941654023954,
180,0,-4,4,0.94,,,,,1,0,1,0,0,26,26,43,,,,,,,,,,,,,,,,,,,,,,,524.7383892000653,None,524.7383892000653,None,524.2380465000169,None,f,0.936340200016275,524.7383892000653,None,,,,,,,,,,,,,f,001,2021_Jul_02_1155,toilet,2021.1.3,99.95941654023954,
0,180,4,-4,0.97,,,,,1,0,1,0,0,27,27,23,,,,,,,,,,,,,,,,,,,,,,,526.6796970000723,None,526.6796970000723,None,526.1793660999974,None,j,0.4831341999815777,526.6796970000723,None,,,,,,,,,,,,,f,001,2021_Jul_02_1155,toilet,2021.1.3,99.95941654023954,
180,180,-4,4,1.15,,,,,1,0,1,0,0,28,28,34,,,,,,,,,,,,,,,,,,,,,,,528.1907170000486,None,528.1907170000486,None,527.690378600033,None,j,0.44418629992287606,528.1907170000486,None,,,,,,,,,,,,,f,001,2021_Jul_02_1155,toilet,2021.1.3,99.95941654023954,
180,180,-4,4,0.85,,,,,1,0,1,0,0,29,29,28,,,,,,,,,,,,,,,,,,,,,,,529.6617198000895,None,529.6617198000895,None,529.1614471999928,None,f,0.4611826000036672,529.6617198000895,None,,,,,,,,,,,,,f,001,2021_Jul_02_1155,toilet,2021.1.3,99.95941654023954,
0,180,-4,4,1.15,,,,,1,0,1,0,0,30,30,20,,,,,,,,,,,,,,,,,,,,,,,531.132802200038,None,531.132802200038,None,530.6324653000338,None,j,0.3819497999502346,531.132802200038,None,,,,,,,,,,,,,f,001,2021_Jul_02_1155,toilet,2021.1.3,99.95941654023954,
180,180,4,-4,1.06,,,,,1,0,1,0,0,31,31,40,,,,,,,,,,,,,,,,,,,,,,,532.5236529000103,None,532.5236529000103,None,532.0233157000039,None,f,0.46309189999010414,532.5236529000103,None,,,,,,,,,,,,,f,001,2021_Jul_02_1155,toilet,2021.1.3,99.95941654023954,
0,0,4,-4,1.06,,,,,1,0,1,0,0,32,32,12,,,,,,,,,,,,,,,,,,,,,,,533.994646999985,None,533.994646999985,None,533.4943091000896,None,f,0.6722484000492841,533.994646999985,None,,,,,,,,,,,,,f,001,2021_Jul_02_1155,toilet,2021.1.3,99.95941654023954,
180,0,4,-4,0.94,,,,,1,0,1,0,0,33,33,50,,,,,,,,,,,,,,,,,,,,,,,535.6857896000147,None,535.6857896000147,None,535.1854559000349,None,j,0.43708299996796995,535.6857896000147,None,,,,,,,,,,,,,f,001,2021_Jul_02_1155,toilet,2021.1.3,99.95941654023954,
0,180,-4,4,1.0,,,,,1,0,1,0,0,34,34,17,,,,,,,,,,,,,,,,,,,,,,,537.1467825000873,None,537.1467825000873,None,536.6465150000295,None,j,1.376122200046666,537.1467825000873,None,,,,,,,,,,,,,f,001,2021_Jul_02_1155,toilet,2021.1.3,99.95941654023954,
180,0,4,-4,1.0,,,,,1,0,1,0,0,35,35,52,,,,,,,,,,,,,,,,,,,,,,,539.5383988000685,None,539.5383988000685,None,539.038059100043,None,j,0.5523804000113159,539.5383988000685,None,,,,,,,,,,,,,f,001,2021_Jul_02_1155,toilet,2021.1.3,99.95941654023954,
180,180,4,-4,1.15,,,,,1,0,1,0,0,36,36,41,,,,,,,,,,,,,,,,,,,,,,,541.0994599000551,None,541.0994599000551,None,540.5991216000402,None,f,0.47937160008586943,541.0994599000551,None,,,,,,,,,,,,,f,001,2021_Jul_02_1155,toilet,2021.1.3,99.95941654023954,
180,0,-4,4,0.85,,,,,1,0,1,0,0,37,37,42,,,,,,,,,,,,,,,,,,,,,,,542.5904753000941,None,542.5904753000941,None,542.0901318000397,None,f,0.5242626999970526,542.5904753000941,None,,,,,,,,,,,,,f,001,2021_Jul_02_1155,toilet,2021.1.3,99.95941654023954,
0,0,4,-4,1.0,,,,,1,0,1,0,0,38,38,10,,,,,,,,,,,,,,,,,,,,,,,544.1215805000393,None,544.1215805000393,None,543.6211655000225,None,j,0.46526720002293587,544.1215805000393,None,,,,,,,,,,,,,f,001,2021_Jul_02_1155,toilet,2021.1.3,99.95941654023954,
180,0,4,-4,1.06,,,,,1,0,1,0,0,39,39,54,,,,,,,,,,,,,,,,,,,,,,,545.5925921000307,None,545.5925921000307,None,545.0921978000551,None,j,0.6261525000445545,545.5925921000307,None,,,,,,,,,,,,,f,001,2021_Jul_02_1155,toilet,2021.1.3,99.95941654023954,
180,0,-4,4,1.15,,,,,1,0,1,0,0,40,40,48,,,,,,,,,,,,,,,,,,,,,,,547.2236279000062,None,547.2236279000062,None,546.7332715000957,None,j,0.7712169999722391,547.2236279000062,None,,,,,,,,,,,,,f,001,2021_Jul_02_1155,toilet,2021.1.3,99.95941654023954,
180,180,4,-4,1.0,,,,,1,0,1,0,0,41,41,38,,,,,,,,,,,,,,,,,,,,,,,548.9948385000462,None,548.9948385000462,None,548.4944690000266,None,f,0.6960173998959363,548.9948385000462,None,,,,,,,,,,,,,f,001,2021_Jul_02_1155,toilet,2021.1.3,99.95941654023954,
180,0,4,-4,0.97,,,,,1,0,1,0,0,42,42,51,,,,,,,,,,,,,,,,,,,,,,,550.7059687000001,None,550.7059687000001,None,550.2056416000705,None,j,0.7609912999905646,550.7059687000001,None,,,,,,,,,,,,,f,001,2021_Jul_02_1155,toilet,2021.1.3,99.95941654023954,
180,180,-4,4,1.03,,,,,1,0,1,0,0,43,43,32,,,,,,,,,,,,,,,,,,,,,,,552.4771655000513,None,552.4771655000513,None,551.9769101000857,None,j,0.9257038000505418,552.4771655000513,None,,,,,,,,,,,,,f,001,2021_Jul_02_1155,toilet,2021.1.3,99.95941654023954,
0,180,-4,4,0.85,,,,,1,0,1,0,0,44,44,14,,,,,,,,,,,,,,,,,,,,,,,554.418476800085,None,554.418476800085,None,553.9181387000717,None,f,0.6322341000195593,554.418476800085,None,,,,,,,,,,,,,f,001,2021_Jul_02_1155,toilet,2021.1.3,99.95941654023954,
0,180,-4,4,0.94,,,,,1,0,1,0,0,45,45,15,,,,,,,,,,,,,,,,,,,,,,,556.059590500081,None,556.059590500081,None,555.5592833000701,None,j,0.8471069000661373,556.059590500081,None,,,,,,,,,,,,,f,001,2021_Jul_02_1155,toilet,2021.1.3,99.95941654023954,
180,180,4,-4,0.97,,,,,1,0,1,0,0,46,46,37,,,,,,,,,,,,,,,,,,,,,,,557.91085320001,None,557.91085320001,None,557.4105061000446,None,j,0.7719914999324828,557.91085320001,None,,,,,,,,,,,,,f,001,2021_Jul_02_1155,toilet,2021.1.3,99.95941654023954,
180,180,-4,4,0.94,,,,,1,0,1,0,0,47,47,29,,,,,,,,,,,,,,,,,,,,,,,559.692065600073,None,559.692065600073,None,559.1916973000625,None,f,0.5586452001007274,559.692065600073,None,,,,,,,,,,,,,f,001,2021_Jul_02_1155,toilet,2021.1.3,99.95941654023954,
0,0,-4,4,1.0,,,,,1,0,1,0,0,48,48,3,,,,,,,,,,,,,,,,,,,,,,,561.2531102000503,None,561.2531102000503,None,560.7528146000113,None,j,0.5496977999573573,561.2531102000503,None,,,,,,,,,,,,,f,001,2021_Jul_02_1155,toilet,2021.1.3,99.95941654023954,
0,0,-4,4,0.97,,,,,1,0,1,0,0,49,49,2,,,,,,,,,,,,,,,,,,,,,,,562.8041655999841,None,562.8041655999841,None,562.3038221000461,None,f,1.254686800064519,562.8041655999841,None,,,,,,,,,,,,,f,001,2021_Jul_02_1155,toilet,2021.1.3,99.95941654023954,
180,0,-4,4,0.97,,,,,1,0,1,0,0,50,50,44,,,,,,,,,,,,,,,,,,,,,,,565.0857024000725,None,565.0857024000725,None,564.585367300082,None,f,0.8449902000138536,565.0857024000725,None,,,,,,,,,,,,,f,001,2021_Jul_02_1155,toilet,2021.1.3,99.95941654023954,
0,0,4,-4,1.03,,,,,1,0,1,0,0,51,51,11,,,,,,,,,,,,,,,,,,,,,,,566.9370484000538,None,566.9370484000538,None,566.4366194000468,None,f,1.185775600024499,566.9370484000538,None,,,,,,,,,,,,,f,001,2021_Jul_02_1155,toilet,2021.1.3,99.95941654023954,
0,180,-4,4,1.03,,,,,1,0,1,0,0,52,52,18,,,,,,,,,,,,,,,,,,,,,,,569.1384588000365,None,569.1384588000365,None,568.6381107000634,None,j,0.5042318999767303,569.1384588000365,None,,,,,,,,,,,,,f,001,2021_Jul_02_1155,toilet,2021.1.3,99.95941654023954,
0,180,4,-4,1.15,,,,,1,0,1,0,0,53,53,27,,,,,,,,,,,,,,,,,,,,,,,570.6494707000675,None,570.6494707000675,None,570.1491368000861,None,f,0.5133727000793442,570.6494707000675,None,,,,,,,,,,,,,f,001,2021_Jul_02_1155,toilet,2021.1.3,99.95941654023954,
180,0,-4,4,1.0,,,,,1,0,1,0,0,54,54,45,,,,,,,,,,,,,,,,,,,,,,,572.1705057000509,None,572.1705057000509,None,571.6701657000231,None,j,1.6643486999673769,572.1705057000509,None,,,,,,,,,,,,,f,001,2021_Jul_02_1155,toilet,2021.1.3,99.95941654023954,
180,180,-4,4,1.0,,,,,1,0,1,0,0,55,55,31,,,,,,,,,,,,,,,,,,,,,,,574.8424015000928,None,574.8424015000928,None,574.3420482000802,None,j,4.000432600034401,574.8424015000928,None,,,,,,,,,,,,,f,001,2021_Jul_02_1155,toilet,2021.1.3,99.95941654023954,
0,0,-4,4,1.06,,,,,1,0,1,0,1,0,56,5,,,,,,,,,,,,,,,,,,,,,,,579.855726400041,None,579.855726400041,None,579.3553683999926,None,j,0.6832500000018626,579.855726400041,None,,,,,,,,,,,,,f,001,2021_Jul_02_1155,toilet,2021.1.3,99.95941654023954,
180,180,-4,4,0.85,,,,,1,0,1,0,1,1,57,28,,,,,,,,,,,,,,,,,,,,,,,581.5569485999877,None,581.5569485999877,None,581.0565498000942,None,f,0.5497979000210762,581.5569485999877,None,,,,,,,,,,,,,f,001,2021_Jul_02_1155,toilet,2021.1.3,99.95941654023954,
180,180,4,-4,1.0,,,,,1,0,1,0,1,2,58,38,,,,,,,,,,,,,,,,,,,,,,,583.1179563000333,None,583.1179563000333,None,582.6176719000796,None,f,0.940995000069961,583.1179563000333,None,,,,,,,,,,,,,f,001,2021_Jul_02_1155,toilet,2021.1.3,99.95941654023954,
180,0,-4,4,1.15,,,,,1,0,1,0,1,3,59,48,,,,,,,,,,,,,,,,,,,,,,,585.0592321000295,None,585.0592321000295,None,584.5588946000207,None,j,0.5515486999647692,585.0592321000295,None,,,,,,,,,,,,,f,001,2021_Jul_02_1155,toilet,2021.1.3,99.95941654023954,
180,0,-4,4,1.06,,,,,1,0,1,0,1,4,60,47,,,,,,,,,,,,,,,,,,,,,,,586.6102796000196,None,586.6102796000196,None,586.1099438000238,None,j,0.6165566999698058,586.6102796000196,None,,,,,,,,,,,,,f,001,2021_Jul_02_1155,toilet,2021.1.3,99.95941654023954,
180,0,-4,4,0.97,,,,,1,0,1,0,1,5,61,44,,,,,,,,,,,,,,,,,,,,,,,588.2514274000423,None,588.2514274000423,None,587.7510617000517,None,f,1.2955051999306306,588.2514274000423,None,,,,,,,,,,,,,f,001,2021_Jul_02_1155,toilet,2021.1.3,99.95941654023954,
0,0,4,-4,1.0,,,,,1,0,1,0,1,6,62,10,,,,,,,,,,,,,,,,,,,,,,,590.5629587000003,None,590.5629587000003,None,590.0626182000851,None,j,1.1118996000150219,590.5629587000003,None,,,,,,,,,,,,,f,001,2021_Jul_02_1155,toilet,2021.1.3,99.95941654023954,
0,180,-4,4,0.85,,,,,1,0,1,0,1,7,63,14,,,,,,,,,,,,,,,,,,,,,,,592.6843959999969,None,592.6843959999969,None,592.1840556000825,None,f,0.6383568999590352,592.6843959999969,None,,,,,,,,,,,,,f,001,2021_Jul_02_1155,toilet,2021.1.3,99.95941654023954,
0,0,4,-4,1.15,,,,,1,0,1,0,1,8,64,13,,,,,,,,,,,,,,,,,,,,,,,594.3355386999901,None,594.3355386999901,None,593.8351747000124,None,f,0.5712407999671996,594.3355386999901,None,,,,,,,,,,,,,f,001,2021_Jul_02_1155,toilet,2021.1.3,99.95941654023954,
0,0,4,-4,0.94,,,,,1,0,1,0,1,9,65,8,,,,,,,,,,,,,,,,,,,,,,,595.9165831999853,None,595.9165831999853,None,595.4162459000945,None,j,0.4780769000062719,595.9165831999853,None,,,,,,,,,,,,,f,001,2021_Jul_02_1155,toilet,2021.1.3,99.95941654023954,
0,180,-4,4,1.03,,,,,1,0,1,0,1,10,66,18,,,,,,,,,,,,,,,,,,,,,,,597.3976596000139,None,597.3976596000139,None,596.897346300073,None,j,0.709008099976927,597.3976596000139,None,,,,,,,,,,,,,f,001,2021_Jul_02_1155,toilet,2021.1.3,99.95941654023954,
0,180,4,-4,1.06,,,,,1,0,1,0,1,11,67,26,,,,,,,,,,,,,,,,,,,,,,,599.1087433000794,None,599.1087433000794,None,598.6084086000919,None,f,0.4859370000194758,599.1087433000794,None,,,,,,,,,,,,,f,001,2021_Jul_02_1155,toilet,2021.1.3,99.95941654023954,
180,180,4,-4,0.85,,,,,1,0,1,0,1,12,68,35,,,,,,,,,,,,,,,,,,,,,,,600.5997586000012,None,600.5997586000012,None,600.0994396000169,None,j,0.4509727000258863,600.5997586000012,None,,,,,,,,,,,,,f,001,2021_Jul_02_1155,toilet,2021.1.3,99.95941654023954,
0,180,-4,4,0.94,,,,,1,0,1,0,1,13,69,15,,,,,,,,,,,,,,,,,,,,,,,602.0607462000335,None,602.0607462000335,None,601.5604068000102,None,f,0.5099880999187008,602.0607462000335,None,,,,,,,,,,,,,f,001,2021_Jul_02_1155,toilet,2021.1.3,99.95941654023954,
180,0,4,-4,1.15,,,,,1,0,1,0,1,14,70,55,,,,,,,,,,,,,,,,,,,,,,,603.5818750000326,None,603.5818750000326,None,603.0814375000773,None,f,0.5408813999965787,603.5818750000326,None,,,,,,,,,,,,,f,001,2021_Jul_02_1155,toilet,2021.1.3,99.95941654023954,
0,0,-4,4,0.85,,,,,1,0,1,0,1,15,71,0,,,,,,,,,,,,,,,,,,,,,,,605.1328681000741,None,605.1328681000741,None,604.632580100093,None,f,0.5738681999500841,605.1328681000741,None,,,,,,,,,,,,,f,001,2021_Jul_02_1155,toilet,2021.1.3,99.95941654023954,
180,0,-4,4,0.85,,,,,1,0,1,0,1,16,72,42,,,,,,,,,,,,,,,,,,,,,,,606.7138965000631,None,606.7138965000631,None,606.2135570000391,None,f,0.7847530000144616,606.7138965000631,None,,,,,,,,,,,,,f,001,2021_Jul_02_1155,toilet,2021.1.3,99.95941654023954,
180,0,-4,4,1.0,,,,,1,0,1,0,1,17,73,45,,,,,,,,,,,,,,,,,,,,,,,608.5051249000244,None,608.5051249000244,None,608.0047747000353,None,j,0.9776871999492869,608.5051249000244,None,,,,,,,,,,,,,f,001,2021_Jul_02_1155,toilet,2021.1.3,99.95941654023954,
180,180,-4,4,1.06,,,,,1,0,1,0,1,18,74,33,,,,,,,,,,,,,,,,,,,,,,,610.5064678000053,None,610.5064678000053,None,610.0061285999836,None,j,0.6083167999750003,610.5064678000053,None,,,,,,,,,,,,,f,001,2021_Jul_02_1155,toilet,2021.1.3,99.95941654023954,
0,0,-4,4,0.97,,,,,1,0,1,0,1,19,75,2,,,,,,,,,,,,,,,,,,,,,,,612.1276436999906,None,612.1276436999906,None,611.6272284000879,None,f,1.0989848000463098,612.1276436999906,None,,,,,,,,,,,,,f,001,2021_Jul_02_1155,toilet,2021.1.3,99.95941654023954,
0,180,4,-4,0.85,,,,,1,0,1,0,1,20,76,21,,,,,,,,,,,,,,,,,,,,,,,614.228983100038,None,614.228983100038,None,613.7286475000437,None,j,0.6617311999434605,614.228983100038,None,,,,,,,,,,,,,f,001,2021_Jul_02_1155,toilet,2021.1.3,99.95941654023954,
180,0,-4,4,1.03,,,,,1,0,1,0,1,21,77,46,,,,,,,,,,,,,,,,,,,,,,,615.9001202000072,None,615.9001202000072,None,615.399779300089,None,j,2.622618000023067,615.9001202000072,None,,,,,,,,,,,,,f,001,2021_Jul_02_1155,toilet,2021.1.3,99.95941654023954,
180,0,-4,4,0.94,,,,,1,0,1,0,1,22,78,43,,,,,,,,,,,,,,,,,,,,,,,619.5226660000626,None,619.5226660000626,None,619.0223155000713,None,f,0.8399722999893129,619.5226660000626,None,,,,,,,,,,,,,f,001,2021_Jul_02_1155,toilet,2021.1.3,99.95941654023954,
0,0,4,-4,1.06,,,,,1,0,1,0,1,23,79,12,,,,,,,,,,,,,,,,,,,,,,,621.3638164000586,None,621.3638164000586,None,620.863434900064,None,j,0.8230299000861123,621.3638164000586,None,,,,,,,,,,,,,f,001,2021_Jul_02_1155,toilet,2021.1.3,99.95941654023954,
180,0,4,-4,0.85,,,,,1,0,1,0,1,24,80,49,,,,,,,,,,,,,,,,,,,,,,,623.2150725000538,None,623.2150725000538,None,622.7147316000191,None,j,0.523753400077112,623.2150725000538,None,,,,,,,,,,,,,f,001,2021_Jul_02_1155,toilet,2021.1.3,99.95941654023954,
180,0,4,-4,0.97,,,,,1,0,1,0,1,25,81,51,,,,,,,,,,,,,,,,,,,,,,,624.7561178000178,None,624.7561178000178,None,624.265783400042,None,j,0.6625873999437317,624.7561178000178,None,,,,,,,,,,,,,f,001,2021_Jul_02_1155,toilet,2021.1.3,99.95941654023954,
180,180,4,-4,0.94,,,,,1,0,1,0,1,26,82,36,,,,,,,,,,,,,,,,,,,,,,,626.4273504000157,None,626.4273504000157,None,625.9270062000724,None,j,0.7515153000131249,626.4273504000157,None,,,,,,,,,,,,,f,001,2021_Jul_02_1155,toilet,2021.1.3,99.95941654023954,
0,180,-4,4,0.97,,,,,1,0,1,0,1,27,83,16,,,,,,,,,,,,,,,,,,,,,,,628.1884416000685,None,628.1884416000685,None,627.6881036000559,None,f,1.4543304000981152,628.1884416000685,None,,,,,,,,,,,,,f,001,2021_Jul_02_1155,toilet,2021.1.3,99.95941654023954,
180,180,4,-4,0.97,,,,,1,0,1,0,1,28,84,37,,,,,,,,,,,,,,,,,,,,,,,630.6501086000353,None,630.6501086000353,None,630.14980870008,None,j,1.3926088999724016,630.6501086000353,None,,,,,,,,,,,,,f,001,2021_Jul_02_1155,toilet,2021.1.3,99.95941654023954,
0,180,4,-4,1.15,,,,,1,0,1,0,1,29,85,27,,,,,,,,,,,,,,,,,,,,,,,633.0618129000068,None,633.0618129000068,None,632.5614037000341,None,f,0.5327980000292882,633.0618129000068,None,,,,,,,,,,,,,f,001,2021_Jul_02_1155,toilet,2021.1.3,99.95941654023954,
0,180,4,-4,0.94,,,,,1,0,1,0,1,30,86,22,,,,,,,,,,,,,,,,,,,,,,,634.6028177000117,None,634.6028177000117,None,634.1025403999956,None,j,0.4797634999267757,634.6028177000117,None,,,,,,,,,,,,,f,001,2021_Jul_02_1155,toilet,2021.1.3,99.95941654023954,
180,180,4,-4,1.15,,,,,1,0,1,0,1,31,87,41,,,,,,,,,,,,,,,,,,,,,,,636.0837903000647,None,636.0837903000647,None,635.5834531000583,None,f,0.5668464000336826,636.0837903000647,None,,,,,,,,,,,,,f,001,2021_Jul_02_1155,toilet,2021.1.3,99.95941654023954,
0,180,-4,4,1.15,,,,,1,0,1,0,1,32,88,20,,,,,,,,,,,,,,,,,,,,,,,637.6548654000508,None,637.6548654000508,None,637.154513400048,None,j,0.531915899948217,637.6548654000508,None,,,,,,,,,,,,,f,001,2021_Jul_02_1155,toilet,2021.1.3,99.95941654023954,
0,0,4,-4,0.97,,,,,1,0,1,0,1,33,89,9,,,,,,,,,,,,,,,,,,,,,,,639.1858926999848,None,639.1858926999848,None,638.695552200079,None,j,1.3047184000024572,639.1858926999848,None,,,,,,,,,,,,,f,001,2021_Jul_02_1155,toilet,2021.1.3,99.95941654023954,
180,180,4,-4,1.06,,,,,1,0,1,0,1,34,90,40,,,,,,,,,,,,,,,,,,,,,,,641.4975432000356,None,641.4975432000356,None,640.9972083000466,None,f,1.777073899982497,641.4975432000356,None,,,,,,,,,,,,,f,001,2021_Jul_02_1155,toilet,2021.1.3,99.95941654023954,
0,0,-4,4,0.94,,,,,1,0,1,0,1,35,91,1,,,,,,,,,,,,,,,,,,,,,,,644.2793472000631,None,644.2793472000631,None,643.7789999000961,None,f,0.7876940000569448,644.2793472000631,None,,,,,,,,,,,,,f,001,2021_Jul_02_1155,toilet,2021.1.3,99.95941654023954,
180,180,-4,4,0.97,,,,,1,0,1,0,1,36,92,30,,,,,,,,,,,,,,,,,,,,,,,646.0905649000779,None,646.0905649000779,None,645.5902303000912,None,f,1.3602335000177845,646.0905649000779,None,,,,,,,,,,,,,f,001,2021_Jul_02_1155,toilet,2021.1.3,99.95941654023954,
180,180,4,-4,1.03,,,,,1,0,1,0,1,37,93,39,,,,,,,,,,,,,,,,,,,,,,,648.4622044999851,None,648.4622044999851,None,647.9619184000185,None,f,0.9725963999517262,648.4622044999851,None,,,,,,,,,,,,,f,001,2021_Jul_02_1155,toilet,2021.1.3,99.95941654023954,
0,0,4,-4,0.85,,,,,1,0,1,0,1,38,94,7,,,,,,,,,,,,,,,,,,,,,,,650.4538972000591,None,650.4538972000591,None,649.9531791000627,None,j,0.5649154999991879,650.4538972000591,None,,,,,,,,,,,,,f,001,2021_Jul_02_1155,toilet,2021.1.3,99.95941654023954,
180,180,-4,4,1.0,,,,,1,0,1,0,1,39,95,31,,,,,,,,,,,,,,,,,,,,,,,652.0245836999966,None,652.0245836999966,None,651.5242444000905,None,j,0.8501272000139579,652.0245836999966,None,,,,,,,,,,,,,f,001,2021_Jul_02_1155,toilet,2021.1.3,99.95941654023954,
180,180,-4,4,1.15,,,,,1,0,1,0,1,40,96,34,,,,,,,,,,,,,,,,,,,,,,,653.8858427000232,None,653.8858427000232,None,653.3855021999916,None,j,0.6529150999849662,653.8858427000232,None,,,,,,,,,,,,,f,001,2021_Jul_02_1155,toilet,2021.1.3,99.95941654023954,
180,0,4,-4,0.94,,,,,1,0,1,0,1,41,97,50,,,,,,,,,,,,,,,,,,,,,,,655.5470403000945,None,655.5470403000945,None,655.0467122000409,None,j,0.7676530000753701,655.5470403000945,None,,,,,,,,,,,,,f,001,2021_Jul_02_1155,toilet,2021.1.3,99.95941654023954,
0,0,-4,4,1.03,,,,,1,0,1,0,1,42,98,4,,,,,,,,,,,,,,,,,,,,,,,657.3181703999871,None,657.3181703999871,None,656.817871300038,None,j,0.740455099963583,657.3181703999871,None,,,,,,,,,,,,,f,001,2021_Jul_02_1155,toilet,2021.1.3,99.95941654023954,
0,0,-4,4,1.0,,,,,1,0,1,0,1,43,99,3,,,,,,,,,,,,,,,,,,,,,,,659.0593497999944,None,659.0593497999944,None,658.5590072000632,None,j,0.7433574999449775,659.0593497999944,None,,,,,,,,,,,,,f,001,2021_Jul_02_1155,toilet,2021.1.3,99.95941654023954,
0,180,4,-4,1.03,,,,,1,0,1,0,1,44,100,25,,,,,,,,,,,,,,,,,,,,,,,660.8305499000708,None,660.8305499000708,None,660.3302085000323,None,f,1.1160616000415757,660.8305499000708,None,,,,,,,,,,,,,f,001,2021_Jul_02_1155,toilet,2021.1.3,99.95941654023954,
180,180,-4,4,0.94,,,,,1,0,1,0,1,45,101,29,,,,,,,,,,,,,,,,,,,,,,,662.952051200089,None,662.952051200089,None,662.4516437000129,None,f,0.8186429000925273,662.952051200089,None,,,,,,,,,,,,,f,001,2021_Jul_02_1155,toilet,2021.1.3,99.95941654023954,
180,0,4,-4,1.0,,,,,1,0,1,0,1,46,102,52,,,,,,,,,,,,,,,,,,,,,,,664.7832235000096,None,664.7832235000096,None,664.2829039000208,None,j,1.6433951000217348,664.7832235000096,None,,,,,,,,,,,,,f,001,2021_Jul_02_1155,toilet,2021.1.3,99.95941654023954,
0,180,-4,4,1.06,,,,,1,0,1,0,1,47,103,19,,,,,,,,,,,,,,,,,,,,,,,667.4350209000986,None,667.4350209000986,None,666.9346806000685,None,j,0.5757311000488698,667.4350209000986,None,,,,,,,,,,,,,f,001,2021_Jul_02_1155,toilet,2021.1.3,99.95941654023954,
180,0,4,-4,1.03,,,,,1,0,1,0,1,48,104,53,,,,,,,,,,,,,,,,,,,,,,,669.026168200071,None,669.026168200071,None,668.5257578000892,None,j,2.8564519999781623,669.026168200071,None,,,,,,,,,,,,,f,001,2021_Jul_02_1155,toilet,2021.1.3,99.95941654023954,
0,180,4,-4,1.0,,,,,1,0,1,0,1,49,105,24,,,,,,,,,,,,,,,,,,,,,,,672.8887179000303,None,672.8887179000303,None,672.3883787000086,None,f,2.4820333999814466,672.8887179000303,None,,,,,,,,,,,,,f,001,2021_Jul_02_1155,toilet,2021.1.3,99.95941654023954,
180,0,4,-4,1.06,,,,,1,0,1,0,1,50,106,54,,,,,,,,,,,,,,,,,,,,,,,676.3810807000846,None,676.3810807000846,None,675.8807407000568,None,j,1.5016258000396192,676.3810807000846,None,,,,,,,,,,,,,f,001,2021_Jul_02_1155,toilet,2021.1.3,99.95941654023954,
0,0,4,-4,1.03,,,,,1,0,1,0,1,51,107,11,,,,,,,,,,,,,,,,,,,,,,,678.8928749000188,None,678.8928749000188,None,678.3925284000579,None,f,1.3418632000684738,678.8928749000188,None,,,,,,,,,,,,,f,001,2021_Jul_02_1155,toilet,2021.1.3,99.95941654023954,
0,180,-4,4,1.0,,,,,1,0,1,0,1,52,108,17,,,,,,,,,,,,,,,,,,,,,,,681.234364700038,None,681.234364700038,None,680.7340308000566,None,j,0.6965140999527648,681.234364700038,None,,,,,,,,,,,,,f,001,2021_Jul_02_1155,toilet,2021.1.3,99.95941654023954,
0,0,-4,4,1.15,,,,,1,0,1,0,1,53,109,6,,,,,,,,,,,,,,,,,,,,,,,682.9455227000872,None,682.9455227000872,None,682.4552098000422,None,j,0.5374516000738367,682.9455227000872,None,,,,,,,,,,,,,f,001,2021_Jul_02_1155,toilet,2021.1.3,99.95941654023954,
0,180,4,-4,0.97,,,,,1,0,1,0,1,54,110,23,,,,,,,,,,,,,,,,,,,,,,,684.4965803000377,None,684.4965803000377,None,683.9962336000754,None,j,0.6981328999390826,684.4965803000377,None,,,,,,,,,,,,,f,001,2021_Jul_02_1155,toilet,2021.1.3,99.95941654023954,
180,180,-4,4,1.03,,,,,1,0,1,0,1,55,111,32,,,,,,,,,,,,,,,,,,,,,,,686.207771299989,None,686.207771299989,None,685.7074781000847,None,j,0.9548742999322712,686.207771299989,None,,,,,,,,,,,,,f,001,2021_Jul_02_1155,toilet,2021.1.3,99.95941654023954,
,,,,,,,,,1,0,1,0,,,,,,,,,,,,,,,,,,,,,,,,,,,,,,,,,,,,,687.178507600096,None,space,13.584215800045058,687.178507600096,None,,,,,,,f,001,2021_Jul_02_1155,toilet,2021.1.3,99.95941654023954,
0,180,4,-4,1.03,,,,,2,0,2,0,0,0,0,25,,,,,,,,,,,,,,,,,700.7876434000209,None,space,3.6390814000042155,700.7876434000209,None,705.4507678000955,None,705.4507678000955,None,704.9504280000692,None,f,1.5838000000221655,705.4507678000955,None,,,,,,,,,,,,,f,001,2021_Jul_02_1155,toilet,2021.1.3,99.95941654023954,
0,0,4,-4,1.15,,,,,2,0,2,0,0,1,1,13,,,,,,,,,,,,,,,,,,,,,,,708.0426003000466,None,708.0426003000466,None,707.5422608000226,None,f,0.4959532000357285,708.0426003000466,None,,,,,,,,,,,,,f,001,2021_Jul_02_1155,toilet,2021.1.3,99.95941654023954,
0,180,4,-4,0.97,,,,,2,0,2,0,0,2,2,23,,,,,,,,,,,,,,,,,,,,,,,709.5435349000618,None,709.5435349000618,None,709.0432025000919,None,j,0.515085400082171,709.5435349000618,None,,,,,,,,,,,,,f,001,2021_Jul_02_1155,toilet,2021.1.3,99.95941654023954,
0,180,-4,4,0.85,,,,,2,0,2,0,0,3,3,14,,,,,,,,,,,,,,,,,,,,,,,711.0645674000261,None,711.0645674000261,None,710.564228400006,None,f,0.5461443999083713,711.0645674000261,None,,,,,,,,,,,,,f,001,2021_Jul_02_1155,toilet,2021.1.3,99.95941654023954,
0,180,4,-4,1.0,,,,,2,0,2,0,0,4,4,24,,,,,,,,,,,,,,,,,,,,,,,712.6356305000372,None,712.6356305000372,None,712.1352899000049,None,j,0.5429391999496147,712.6356305000372,None,,,,,,,,,,,,,f,001,2021_Jul_02_1155,toilet,2021.1.3,99.95941654023954,
0,0,-4,4,1.0,,,,,2,0,2,0,0,5,5,3,,,,,,,,,,,,,,,,,,,,,,,714.1867618000833,None,714.1867618000833,None,713.6863397000125,None,j,0.8798584999749437,714.1867618000833,None,,,,,,,,,,,,,f,001,2021_Jul_02_1155,toilet,2021.1.3,99.95941654023954,
180,0,4,-4,1.0,,,,,2,0,2,0,0,6,6,52,,,,,,,,,,,,,,,,,,,,,,,716.0779586000135,None,716.0779586000135,None,715.5777124000015,None,j,0.5726742999395356,716.0779586000135,None,,,,,,,,,,,,,f,001,2021_Jul_02_1155,toilet,2021.1.3,99.95941654023954,
0,180,-4,4,0.97,,,,,2,0,2,0,0,7,7,16,,,,,,,,,,,,,,,,,,,,,,,717.659024200053,None,717.659024200053,None,717.1586926000891,None,f,0.8156446000793949,717.659024200053,None,,,,,,,,,,,,,f,001,2021_Jul_02_1155,toilet,2021.1.3,99.95941654023954,
180,0,-4,4,0.94,,,,,2,0,2,0,0,8,8,43,,,,,,,,,,,,,,,,,,,,,,,719.4802664000308,None,719.4802664000308,None,718.979930200032,None,f,0.6744368999497965,719.4802664000308,None,,,,,,,,,,,,,f,001,2021_Jul_02_1155,toilet,2021.1.3,99.95941654023954,
0,0,-4,4,0.97,,,,,2,0,2,0,0,9,9,2,,,,,,,,,,,,,,,,,,,,,,,721.1714123000856,None,721.1714123000856,None,720.6710727000609,None,j,0.5512825000332668,721.1714123000856,None,,,,,,,,,,,,,f,001,2021_Jul_02_1155,toilet,2021.1.3,99.95941654023954,
180,0,4,-4,1.15,,,,,2,0,2,0,0,10,10,55,,,,,,,,,,,,,,,,,,,,,,,722.7225522000808,None,722.7225522000808,None,722.2222120000515,None,f,0.599984799977392,722.7225522000808,None,,,,,,,,,,,,,f,001,2021_Jul_02_1155,toilet,2021.1.3,99.95941654023954,
0,0,-4,4,1.15,,,,,2,0,2,0,0,11,11,6,,,,,,,,,,,,,,,,,,,,,,,724.3235800000839,None,724.3235800000839,None,723.823210200062,None,j,0.43905230006203055,724.3235800000839,None,,,,,,,,,,,,,f,001,2021_Jul_02_1155,toilet,2021.1.3,99.95941654023954,
180,0,-4,4,0.85,,,,,2,0,2,0,0,12,12,42,,,,,,,,,,,,,,,,,,,,,,,725.7645204000873,None,725.7645204000873,None,725.2641832000809,None,f,0.4699958000564948,725.7645204000873,None,,,,,,,,,,,,,f,001,2021_Jul_02_1155,toilet,2021.1.3,99.95941654023954,
0,180,4,-4,1.06,,,,,2,0,2,0,0,13,13,26,,,,,,,,,,,,,,,,,,,,,,,727.2355263000354,None,727.2355263000354,None,726.7351770000532,None,f,0.8390523999696597,727.2355263000354,None,,,,,,,,,,,,,f,001,2021_Jul_02_1155,toilet,2021.1.3,99.95941654023954,
0,180,-4,4,1.06,,,,,2,0,2,0,0,14,14,19,,,,,,,,,,,,,,,,,,,,,,,729.0868603000417,None,729.0868603000417,None,728.5864334000507,None,j,0.5077428999356925,729.0868603000417,None,,,,,,,,,,,,,f,001,2021_Jul_02_1155,toilet,2021.1.3,99.95941654023954,
180,0,-4,4,1.0,,,,,2,0,2,0,0,15,15,45,,,,,,,,,,,,,,,,,,,,,,,730.6078035000246,None,730.6078035000246,None,730.1075081999879,None,j,0.5867105999495834,730.6078035000246,None,,,,,,,,,,,,,f,001,2021_Jul_02_1155,toilet,2021.1.3,99.95941654023954,
0,180,-4,4,0.94,,,,,2,0,2,0,0,16,16,15,,,,,,,,,,,,,,,,,,,,,,,732.1988806000445,None,732.1988806000445,None,731.6985379999969,None,f,0.49978159996680915,732.1988806000445,None,,,,,,,,,,,,,f,001,2021_Jul_02_1155,toilet,2021.1.3,99.95941654023954,
0,0,4,-4,0.94,,,,,2,0,2,0,0,17,17,8,,,,,,,,,,,,,,,,,,,,,,,733.699895500089,None,733.699895500089,None,733.1995565000689,None,j,0.48662680003326386,733.699895500089,None,,,,,,,,,,,,,f,001,2021_Jul_02_1155,toilet,2021.1.3,99.95941654023954,
0,0,-4,4,0.85,,,,,2,0,2,0,0,18,18,0,,,,,,,,,,,,,,,,,,,,,,,735.2009118000278,None,735.2009118000278,None,734.7005755000282,None,f,0.473701799986884,735.2009118000278,None,,,,,,,,,,,,,f,001,2021_Jul_02_1155,toilet,2021.1.3,99.95941654023954,
0,0,4,-4,1.03,,,,,2,0,2,0,0,19,19,11,,,,,,,,,,,,,,,,,,,,,,,736.681995299994,None,736.681995299994,None,736.1816682000645,None,j,0.4965197000419721,736.681995299994,None,,,,,,,,,,,,,f,001,2021_Jul_02_1155,toilet,2021.1.3,99.95941654023954,
180,0,4,-4,0.94,,,,,2,0,2,0,0,20,20,50,,,,,,,,,,,,,,,,,,,,,,,738.1829382000724,None,738.1829382000724,None,737.6826851000078,None,j,0.499581600073725,738.1829382000724,None,,,,,,,,,,,,,f,001,2021_Jul_02_1155,toilet,2021.1.3,99.95941654023954,
180,180,-4,4,0.94,,,,,2,0,2,0,0,21,21,29,,,,,,,,,,,,,,,,,,,,,,,739.6839454000583,None,739.6839454000583,None,739.1836041000206,None,f,0.5025603000540286,739.6839454000583,None,,,,,,,,,,,,,f,001,2021_Jul_02_1155,toilet,2021.1.3,99.95941654023954,
180,0,-4,4,1.06,,,,,2,0,2,0,0,22,22,47,,,,,,,,,,,,,,,,,,,,,,,741.1949683000566,None,741.1949683000566,None,740.6946348000783,None,j,0.4636573001043871,741.1949683000566,None,,,,,,,,,,,,,f,001,2021_Jul_02_1155,toilet,2021.1.3,99.95941654023954,
180,180,4,-4,1.03,,,,,2,0,2,0,0,23,23,39,,,,,,,,,,,,,,,,,,,,,,,742.6859786000568,None,742.6859786000568,None,742.1856415000511,None,f,1.036545200040564,742.6859786000568,None,,,,,,,,,,,,,f,001,2021_Jul_02_1155,toilet,2021.1.3,99.95941654023954,
180,180,-4,4,1.15,,,,,2,0,2,0,0,24,24,34,,,,,,,,,,,,,,,,,,,,,,,744.7274514000164,None,744.7274514000164,None,744.2271053000586,None,j,0.4350398000096902,744.7274514000164,None,,,,,,,,,,,,,f,001,2021_Jul_02_1155,toilet,2021.1.3,99.95941654023954,
180,0,4,-4,1.03,,,,,2,0,2,0,0,25,25,53,,,,,,,,,,,,,,,,,,,,,,,746.1683398000896,None,746.1683398000896,None,745.6680047999835,None,f,0.5623525000410154,746.1683398000896,None,,,,,,,,,,,,,f,001,2021_Jul_02_1155,toilet,2021.1.3,99.95941654023954,
180,180,4,-4,0.85,,,,,2,0,2,0,0,26,26,35,,,,,,,,,,,,,,,,,,,,,,,747.7394007000839,None,747.7394007000839,None,747.2390627000714,None,j,0.4791209000395611,747.7394007000839,None,,,,,,,,,,,,,f,001,2021_Jul_02_1155,toilet,2021.1.3,99.95941654023954,
0,180,4,-4,0.94,,,,,2,0,2,0,0,27,27,22,,,,,,,,,,,,,,,,,,,,,,,749.220408000052,None,749.220408000052,None,748.7200677000219,None,j,0.4541781999869272,749.220408000052,None,,,,,,,,,,,,,f,001,2021_Jul_02_1155,toilet,2021.1.3,99.95941654023954,
0,0,4,-4,1.06,,,,,2,0,2,0,0,28,28,12,,,,,,,,,,,,,,,,,,,,,,,750.6814735000953,None,750.6814735000953,None,750.181083100033,None,f,0.5290293000871316,750.6814735000953,None,,,,,,,,,,,,,f,001,2021_Jul_02_1155,toilet,2021.1.3,99.95941654023954,
0,0,4,-4,0.85,,,,,2,0,2,0,0,29,29,7,,,,,,,,,,,,,,,,,,,,,,,752.2125033000484,None,752.2125033000484,None,751.712176400004,None,j,0.4380222000181675,752.2125033000484,None,,,,,,,,,,,,,f,001,2021_Jul_02_1155,toilet,2021.1.3,99.95941654023954,
180,0,-4,4,0.97,,,,,2,0,2,0,0,30,30,44,,,,,,,,,,,,,,,,,,,,,,,753.6534040000988,None,753.6534040000988,None,753.1530688999919,None,f,0.6931911000283435,753.6534040000988,None,,,,,,,,,,,,,f,001,2021_Jul_02_1155,toilet,2021.1.3,99.95941654023954,
180,180,-4,4,1.06,,,,,2,0,2,0,0,31,31,33,,,,,,,,,,,,,,,,,,,,,,,755.3545605000108,None,755.3545605000108,None,754.8542196000926,None,j,0.4641058000270277,755.3545605000108,None,,,,,,,,,,,,,f,001,2021_Jul_02_1155,toilet,2021.1.3,99.95941654023954,
180,180,-4,4,1.0,,,,,2,0,2,0,0,32,32,31,,,,,,,,,,,,,,,,,,,,,,,756.845570800011,None,756.845570800011,None,756.3452283000806,None,f,0.8449532999657094,756.845570800011,None,,,,,,,,,,,,,f,001,2021_Jul_02_1155,toilet,2021.1.3,99.95941654023954,
180,180,4,-4,1.0,,,,,2,0,2,0,0,33,33,38,,,,,,,,,,,,,,,,,,,,,,,758.6969170999946,None,758.6969170999946,None,758.1964841000736,None,j,0.9776505000190809,758.6969170999946,None,,,,,,,,,,,,,f,001,2021_Jul_02_1155,toilet,2021.1.3,99.95941654023954,
180,0,4,-4,0.85,,,,,2,0,2,0,0,34,34,49,,,,,,,,,,,,,,,,,,,,,,,760.688179000048,None,760.688179000048,None,760.1878288000589,None,j,0.5064071998931468,760.688179000048,None,,,,,,,,,,,,,f,001,2021_Jul_02_1155,toilet,2021.1.3,99.95941654023954,
0,180,4,-4,1.15,,,,,2,0,2,0,0,35,35,27,,,,,,,,,,,,,,,,,,,,,,,762.199193400098,None,762.199193400098,None,761.6988586999942,None,f,0.41928070003632456,762.199193400098,None,,,,,,,,,,,,,f,001,2021_Jul_02_1155,toilet,2021.1.3,99.95941654023954,
180,180,-4,4,1.03,,,,,2,0,2,0,0,36,36,32,,,,,,,,,,,,,,,,,,,,,,,763.6201540000038,None,763.6201540000038,None,763.1198222000385,None,j,0.8704617000184953,763.6201540000038,None,,,,,,,,,,,,,f,001,2021_Jul_02_1155,toilet,2021.1.3,99.95941654023954,
180,180,4,-4,0.97,,,,,2,0,2,0,0,37,37,37,,,,,,,,,,,,,,,,,,,,,,,765.5015276999911,None,765.5015276999911,None,765.0010902000358,None,j,0.6049512000754476,765.5015276999911,None,,,,,,,,,,,,,f,001,2021_Jul_02_1155,toilet,2021.1.3,99.95941654023954,
180,0,-4,4,1.03,,,,,2,0,2,0,0,38,38,46,,,,,,,,,,,,,,,,,,,,,,,767.1126159999985,None,767.1126159999985,None,766.6122766000917,None,j,0.9619628000073135,767.1126159999985,None,,,,,,,,,,,,,f,001,2021_Jul_02_1155,toilet,2021.1.3,99.95941654023954,
180,180,-4,4,0.85,,,,,2,0,2,0,0,39,39,28,,,,,,,,,,,,,,,,,,,,,,,769.0838575999951,None,769.0838575999951,None,768.5835185000906,None,f,0.526598299969919,769.0838575999951,None,,,,,,,,,,,,,f,001,2021_Jul_02_1155,toilet,2021.1.3,99.95941654023954,
0,180,-4,4,1.03,,,,,2,0,2,0,0,40,40,18,,,,,,,,,,,,,,,,,,,,,,,770.6148973000236,None,770.6148973000236,None,770.1145551000955,None,j,1.2996846999740228,770.6148973000236,None,,,,,,,,,,,,,f,001,2021_Jul_02_1155,toilet,2021.1.3,99.95941654023954,
0,0,-4,4,1.03,,,,,2,0,2,0,0,41,41,4,,,,,,,,,,,,,,,,,,,,,,,772.9265317000682,None,772.9265317000682,None,772.4261203000788,None,j,0.5560959000140429,772.9265317000682,None,,,,,,,,,,,,,f,001,2021_Jul_02_1155,toilet,2021.1.3,99.95941654023954,
0,180,4,-4,0.85,,,,,2,0,2,0,0,42,42,21,,,,,,,,,,,,,,,,,,,,,,,774.4976067000534,None,774.4976067000534,None,773.9972261000657,None,j,0.47291589993983507,774.4976067000534,None,,,,,,,,,,,,,f,001,2021_Jul_02_1155,toilet,2021.1.3,99.95941654023954,
180,0,4,-4,0.97,,,,,2,0,2,0,0,43,43,51,,,,,,,,,,,,,,,,,,,,,,,775.9785311000887,None,775.9785311000887,None,775.4781844000099,None,j,0.784032900002785,775.9785311000887,None,,,,,,,,,,,,,f,001,2021_Jul_02_1155,toilet,2021.1.3,99.95941654023954,
0,0,4,-4,0.97,,,,,2,0,2,0,0,44,44,9,,,,,,,,,,,,,,,,,,,,,,,777.7697484000819,None,777.7697484000819,None,777.2693999999901,None,j,1.952824700041674,777.7697484000819,None,,,,,,,,,,,,,f,001,2021_Jul_02_1155,toilet,2021.1.3,99.95941654023954,
0,180,-4,4,1.0,,,,,2,0,2,0,0,45,45,17,,,,,,,,,,,,,,,,,,,,,,,780.7218336000806,None,780.7218336000806,None,780.221395600005,None,j,0.8086044000228867,780.7218336000806,None,,,,,,,,,,,,,f,001,2021_Jul_02_1155,toilet,2021.1.3,99.95941654023954,
0,0,4,-4,1.0,,,,,2,0,2,0,0,46,46,10,,,,,,,,,,,,,,,,,,,,,,,782.5329663000302,None,782.5329663000302,None,782.0327058000257,None,j,2.8054976999992505,782.5329663000302,None,,,,,,,,,,,,,f,001,2021_Jul_02_1155,toilet,2021.1.3,99.95941654023954,
180,180,4,-4,0.94,,,,,2,0,2,0,0,47,47,36,,,,,,,,,,,,,,,,,,,,,,,786.3455464000581,None,786.3455464000581,None,785.8452084000455,None,j,0.7530786000424996,786.3455464000581,None,,,,,,,,,,,,,f,001,2021_Jul_02_1155,toilet,2021.1.3,99.95941654023954,
180,180,4,-4,1.15,,,,,2,0,2,0,0,48,48,41,,,,,,,,,,,,,,,,,,,,,,,788.1168296000687,None,788.1168296000687,None,787.6164062999887,None,f,0.5657575000077486,788.1168296000687,None,,,,,,,,,,,,,f,001,2021_Jul_02_1155,toilet,2021.1.3,99.95941654023954,
0,180,-4,4,1.15,,,,,2,0,2,0,0,49,49,20,,,,,,,,,,,,,,,,,,,,,,,789.6878169000847,None,789.6878169000847,None,789.197557699983,None,j,0.4986365999793634,789.6878169000847,None,,,,,,,,,,,,,f,001,2021_Jul_02_1155,toilet,2021.1.3,99.95941654023954,
180,0,-4,4,1.15,,,,,2,0,2,0,0,50,50,48,,,,,,,,,,,,,,,,,,,,,,,791.1888288999908,None,791.1888288999908,None,790.6884846000466,None,j,0.5176165000302717,791.1888288999908,None,,,,,,,,,,,,,f,001,2021_Jul_02_1155,toilet,2021.1.3,99.95941654023954,
0,0,-4,4,0.94,,,,,2,0,2,0,0,51,51,1,,,,,,,,,,,,,,,,,,,,,,,792.7098588000517,None,792.7098588000517,None,792.2095170000102,None,f,0.5326818000758067,792.7098588000517,None,,,,,,,,,,,,,f,001,2021_Jul_02_1155,toilet,2021.1.3,99.95941654023954,
0,0,-4,4,1.06,,,,,2,0,2,0,0,52,52,5,,,,,,,,,,,,,,,,,,,,,,,794.2709137999918,None,794.2709137999918,None,793.7705814000219,None,j,0.4755975999869406,794.2709137999918,None,,,,,,,,,,,,,f,001,2021_Jul_02_1155,toilet,2021.1.3,99.95941654023954,
180,180,-4,4,0.97,,,,,2,0,2,0,0,53,53,30,,,,,,,,,,,,,,,,,,,,,,,795.7520016999915,None,795.7520016999915,None,795.251576700015,None,f,0.5785338000860065,795.7520016999915,None,,,,,,,,,,,,,f,001,2021_Jul_02_1155,toilet,2021.1.3,99.95941654023954,
180,180,4,-4,1.06,,,,,2,0,2,0,0,54,54,40,,,,,,,,,,,,,,,,,,,,,,,797.3429943000665,None,797.3429943000665,None,796.8426717000548,None,f,0.5554681000066921,797.3429943000665,None,,,,,,,,,,,,,f,001,2021_Jul_02_1155,toilet,2021.1.3,99.95941654023954,
180,0,4,-4,1.06,,,,,2,0,2,0,0,55,55,54,,,,,,,,,,,,,,,,,,,,,,,798.9040527000325,None,798.9040527000325,None,798.4037118999986,None,f,3.2026698999106884,798.9040527000325,None,,,,,,,,,,,,,f,001,2021_Jul_02_1155,toilet,2021.1.3,99.95941654023954,
180,0,-4,4,0.85,,,,,2,0,2,0,1,0,56,42,,,,,,,,,,,,,,,,,,,,,,,803.1169868999859,None,803.1169868999859,None,802.61664630007,None,f,0.8295317000010982,803.1169868999859,None,,,,,,,,,,,,,f,001,2021_Jul_02_1155,toilet,2021.1.3,99.95941654023954,
180,180,-4,4,1.0,,,,,2,0,2,0,1,1,57,31,,,,,,,,,,,,,,,,,,,,,,,804.9581548999995,None,804.9581548999995,None,804.4578131000744,None,j,1.3563798000104725,804.9581548999995,None,,,,,,,,,,,,,f,001,2021_Jul_02_1155,toilet,2021.1.3,99.95941654023954,
180,180,4,-4,0.85,,,,,2,0,2,0,1,2,58,35,,,,,,,,,,,,,,,,,,,,,,,807.3297580000944,None,807.3297580000944,None,806.8294193000766,None,j,0.48876300000119954,807.3297580000944,None,,,,,,,,,,,,,f,001,2021_Jul_02_1155,toilet,2021.1.3,99.95941654023954,
0,0,-4,4,1.06,,,,,2,0,2,0,1,3,59,5,,,,,,,,,,,,,,,,,,,,,,,808.8307759000454,None,808.8307759000454,None,808.3304352000123,None,j,0.571724999928847,808.8307759000454,None,,,,,,,,,,,,,f,001,2021_Jul_02_1155,toilet,2021.1.3,99.95941654023954,
180,180,-4,4,1.06,,,,,2,0,2,0,1,4,60,33,,,,,,,,,,,,,,,,,,,,,,,810.4019298000494,None,810.4019298000494,None,809.9014954000013,None,j,0.6165738999843597,810.4019298000494,None,,,,,,,,,,,,,f,001,2021_Jul_02_1155,toilet,2021.1.3,99.95941654023954,
0,0,4,-4,0.85,,,,,2,0,2,0,1,5,61,7,,,,,,,,,,,,,,,,,,,,,,,812.0329415000742,None,812.0329415000742,None,811.5326377000893,None,j,0.5695084000471979,812.0329415000742,None,,,,,,,,,,,,,f,001,2021_Jul_02_1155,toilet,2021.1.3,99.95941654023954,
0,180,4,-4,0.94,,,,,2,0,2,0,1,6,62,22,,,,,,,,,,,,,,,,,,,,,,,813.6040059000952,None,813.6040059000952,None,813.1036654000636,None,j,0.6145983999595046,813.6040059000952,None,,,,,,,,,,,,,f,001,2021_Jul_02_1155,toilet,2021.1.3,99.95941654023954,
180,180,-4,4,0.94,,,,,2,0,2,0,1,7,63,29,,,,,,,,,,,,,,,,,,,,,,,815.2451321000699,None,815.2451321000699,None,814.7447751000291,None,f,0.7976694999961182,815.2451321000699,None,,,,,,,,,,,,,f,001,2021_Jul_02_1155,toilet,2021.1.3,99.95941654023954,
180,180,-4,4,1.15,,,,,2,0,2,0,1,8,64,34,,,,,,,,,,,,,,,,,,,,,,,817.0563447000459,None,817.0563447000459,None,816.5560861000558,None,j,0.45818319998215884,817.0563447000459,None,,,,,,,,,,,,,f,001,2021_Jul_02_1155,toilet,2021.1.3,99.95941654023954,
180,180,-4,4,0.97,,,,,2,0,2,0,1,9,65,30,,,,,,,,,,,,,,,,,,,,,,,818.5273158000782,None,818.5273158000782,None,818.0270951000275,None,f,0.5712728999787942,818.5273158000782,None,,,,,,,,,,,,,f,001,2021_Jul_02_1155,toilet,2021.1.3,99.95941654023954,
180,180,4,-4,1.03,,,,,2,0,2,0,1,10,66,39,,,,,,,,,,,,,,,,,,,,,,,820.1084096999839,None,820.1084096999839,None,819.60807200009,None,f,0.6541134000290185,820.1084096999839,None,,,,,,,,,,,,,f,001,2021_Jul_02_1155,toilet,2021.1.3,99.95941654023954,
0,180,-4,4,0.97,,,,,2,0,2,0,1,11,67,16,,,,,,,,,,,,,,,,,,,,,,,821.76954940008,None,821.76954940008,None,821.2691956000635,None,j,0.5451016000006348,821.76954940008,None,,,,,,,,,,,,,f,001,2021_Jul_02_1155,toilet,2021.1.3,99.95941654023954,
180,0,-4,4,1.06,,,,,2,0,2,0,1,12,68,47,,,,,,,,,,,,,,,,,,,,,,,823.3406025000149,None,823.3406025000149,None,822.8402566000586,None,j,0.6698959999484941,823.3406025000149,None,,,,,,,,,,,,,f,001,2021_Jul_02_1155,toilet,2021.1.3,99.95941654023954,
0,0,-4,4,1.0,,,,,2,0,2,0,1,13,69,3,,,,,,,,,,,,,,,,,,,,,,,825.0218300999841,None,825.0218300999841,None,824.5214020999847,None,j,1.2606759000336751,825.0218300999841,None,,,,,,,,,,,,,f,001,2021_Jul_02_1155,toilet,2021.1.3,99.95941654023954,
0,0,-4,4,1.03,,,,,2,0,2,0,1,14,70,4,,,,,,,,,,,,,,,,,,,,,,,827.2932733000489,None,827.2932733000489,None,826.7929389000637,None,j,0.5571528999134898,827.2932733000489,None,,,,,,,,,,,,,f,001,2021_Jul_02_1155,toilet,2021.1.3,99.95941654023954,
180,0,-4,4,0.97,,,,,2,0,2,0,1,15,71,44,,,,,,,,,,,,,,,,,,,,,,,828.8543356000446,None,828.8543356000446,None,828.3539935000008,None,f,0.7563112999778241,828.8543356000446,None,,,,,,,,,,,,,f,001,2021_Jul_02_1155,toilet,2021.1.3,99.95941654023954,
180,0,4,-4,1.15,,,,,2,0,2,0,1,16,72,55,,,,,,,,,,,,,,,,,,,,,,,830.6355428000679,None,830.6355428000679,None,830.1352034000447,None,f,0.7989641000749543,830.6355428000679,None,,,,,,,,,,,,,f,001,2021_Jul_02_1155,toilet,2021.1.3,99.95941654023954,
180,0,4,-4,1.0,,,,,2,0,2,0,1,17,73,52,,,,,,,,,,,,,,,,,,,,,,,832.4368400000967,None,832.4368400000967,None,831.9365122000454,None,j,0.5016540000215173,832.4368400000967,None,,,,,,,,,,,,,f,001,2021_Jul_02_1155,toilet,2021.1.3,99.95941654023954,
180,0,4,-4,1.06,,,,,2,0,2,0,1,18,74,54,,,,,,,,,,,,,,,,,,,,,,,833.9377745999955,None,833.9377745999955,None,833.4375393000664,None,f,0.9206394000211731,833.9377745999955,None,,,,,,,,,,,,,f,001,2021_Jul_02_1155,toilet,2021.1.3,99.95941654023954,
0,0,-4,4,0.85,,,,,2,0,2,0,1,19,75,0,,,,,,,,,,,,,,,,,,,,,,,835.859077500063,None,835.859077500063,None,835.3587620999897,None,f,0.5514359000371769,835.859077500063,None,,,,,,,,,,,,,f,001,2021_Jul_02_1155,toilet,2021.1.3,99.95941654023954,
0,180,4,-4,1.06,,,,,2,0,2,0,1,20,76,26,,,,,,,,,,,,,,,,,,,,,,,837.4201350000221,None,837.4201350000221,None,836.9197974000126,None,f,0.6864288999931887,837.4201350000221,None,,,,,,,,,,,,,f,001,2021_Jul_02_1155,toilet,2021.1.3,99.95941654023954,
180,180,4,-4,1.15,,,,,2,0,2,0,1,21,77,41,,,,,,,,,,,,,,,,,,,,,,,839.1212869000155,None,839.1212869000155,None,838.6209478999954,None,f,0.5373771999729797,839.1212869000155,None,,,,,,,,,,,,,f,001,2021_Jul_02_1155,toilet,2021.1.3,99.95941654023954,
0,180,4,-4,1.15,,,,,2,0,2,0,1,22,78,27,,,,,,,,,,,,,,,,,,,,,,,840.6723565000575,None,840.6723565000575,None,840.1720867000986,None,f,0.5541130000492558,840.6723565000575,None,,,,,,,,,,,,,f,001,2021_Jul_02_1155,toilet,2021.1.3,99.95941654023954,
0,0,4,-4,1.03,,,,,2,0,2,0,1,23,79,11,,,,,,,,,,,,,,,,,,,,,,,842.2333936000941,None,842.2333936000941,None,841.7330543000717,None,j,0.41700580005999655,842.2333936000941,None,,,,,,,,,,,,,f,001,2021_Jul_02_1155,toilet,2021.1.3,99.95941654023954,
180,180,-4,4,1.03,,,,,2,0,2,0,1,24,80,32,,,,,,,,,,,,,,,,,,,,,,,843.6543579000281,None,843.6543579000281,None,843.1540212000255,None,j,0.8042053999379277,843.6543579000281,None,,,,,,,,,,,,,f,001,2021_Jul_02_1155,toilet,2021.1.3,99.95941654023954,
0,180,-4,4,1.15,,,,,2,0,2,0,1,25,81,20,,,,,,,,,,,,,,,,,,,,,,,845.4755863000173,None,845.4755863000173,None,844.9752509000245,None,j,0.5188729999354109,845.4755863000173,None,,,,,,,,,,,,,f,001,2021_Jul_02_1155,toilet,2021.1.3,99.95941654023954,
180,0,-4,4,1.15,,,,,2,0,2,0,1,26,82,48,,,,,,,,,,,,,,,,,,,,,,,847.0067142000189,None,847.0067142000189,None,846.5062857000157,None,j,0.4598916000686586,847.0067142000189,None,,,,,,,,,,,,,f,001,2021_Jul_02_1155,toilet,2021.1.3,99.95941654023954,
180,0,4,-4,0.97,,,,,2,0,2,0,1,27,83,51,,,,,,,,,,,,,,,,,,,,,,,848.4776599000907,None,848.4776599000907,None,847.9772839000216,None,j,1.0207528999308124,848.4776599000907,None,,,,,,,,,,,,,f,001,2021_Jul_02_1155,toilet,2021.1.3,99.95941654023954,
0,0,4,-4,0.94,,,,,2,0,2,0,1,28,84,8,,,,,,,,,,,,,,,,,,,,,,,850.4989868000848,None,850.4989868000848,None,849.9986496000784,None,j,0.5354219999862835,850.4989868000848,None,,,,,,,,,,,,,f,001,2021_Jul_02_1155,toilet,2021.1.3,99.95941654023954,
0,180,4,-4,0.97,,,,,2,0,2,0,1,29,85,23,,,,,,,,,,,,,,,,,,,,,,,852.0400329000549,None,852.0400329000549,None,851.5396958000492,None,j,1.4104567000176758,852.0400329000549,None,,,,,,,,,,,,,f,001,2021_Jul_02_1155,toilet,2021.1.3,99.95941654023954,
180,0,-4,4,1.03,,,,,2,0,2,0,1,30,86,46,,,,,,,,,,,,,,,,,,,,,,,854.4616740000201,None,854.4616740000201,None,853.961420900072,None,j,0.9888094000052661,854.4616740000201,None,,,,,,,,,,,,,f,001,2021_Jul_02_1155,toilet,2021.1.3,99.95941654023954,
0,0,4,-4,0.97,,,,,2,0,2,0,1,31,87,9,,,,,,,,,,,,,,,,,,,,,,,856.4630292000948,None,856.4630292000948,None,855.9626874000533,None,j,1.1634490999858826,856.4630292000948,None,,,,,,,,,,,,,f,001,2021_Jul_02_1155,toilet,2021.1.3,99.95941654023954,
0,180,4,-4,0.85,,,,,2,0,2,0,1,32,88,21,,,,,,,,,,,,,,,,,,,,,,,858.6345031000674,None,858.6345031000674,None,858.1341641000472,None,j,0.43204360001254827,858.6345031000674,None,,,,,,,,,,,,,f,001,2021_Jul_02_1155,toilet,2021.1.3,99.95941654023954,
180,0,4,-4,0.85,,,,,2,0,2,0,1,33,89,49,,,,,,,,,,,,,,,,,,,,,,,860.0954902000958,None,860.0954902000958,None,859.5951484000543,None,j,0.4589786999858916,860.0954902000958,None,,,,,,,,,,,,,f,001,2021_Jul_02_1155,toilet,2021.1.3,99.95941654023954,
0,180,4,-4,1.03,,,,,2,0,2,0,1,34,90,25,,,,,,,,,,,,,,,,,,,,,,,861.5664859000826,None,861.5664859000826,None,861.0662386000622,None,f,0.7960432000691071,861.5664859000826,None,,,,,,,,,,,,,f,001,2021_Jul_02_1155,toilet,2021.1.3,99.95941654023954,
0,0,-4,4,0.94,,,,,2,0,2,0,1,35,91,1,,,,,,,,,,,,,,,,,,,,,,,863.3777176000876,None,863.3777176000876,None,862.8774591000983,None,f,0.6167044000467286,863.3777176000876,None,,,,,,,,,,,,,f,001,2021_Jul_02_1155,toilet,2021.1.3,99.95941654023954,
0,0,4,-4,1.06,,,,,2,0,2,0,1,36,92,12,,,,,,,,,,,,,,,,,,,,,,,864.9988124000374,None,864.9988124000374,None,864.4984891000204,None,f,0.6278176999185234,864.9988124000374,None,,,,,,,,,,,,,f,001,2021_Jul_02_1155,toilet,2021.1.3,99.95941654023954,
0,180,-4,4,1.06,,,,,2,0,2,0,1,37,93,19,,,,,,,,,,,,,,,,,,,,,,,866.6399198999861,None,866.6399198999861,None,866.1395831999835,None,j,0.5384685000171885,866.6399198999861,None,,,,,,,,,,,,,f,001,2021_Jul_02_1155,toilet,2021.1.3,99.95941654023954,
180,180,4,-4,0.94,,,,,2,0,2,0,1,38,94,36,,,,,,,,,,,,,,,,,,,,,,,868.1809640000574,None,868.1809640000574,None,867.6806290000677,None,j,0.6615213000914082,868.1809640000574,None,,,,,,,,,,,,,f,001,2021_Jul_02_1155,toilet,2021.1.3,99.95941654023954,
0,180,-4,4,0.94,,,,,2,0,2,0,1,39,95,15,,,,,,,,,,,,,,,,,,,,,,,869.8521012000274,None,869.8521012000274,None,869.3518435000442,None,f,0.5584174999967217,869.8521012000274,None,,,,,,,,,,,,,f,001,2021_Jul_02_1155,toilet,2021.1.3,99.95941654023954,
0,0,4,-4,1.0,,,,,2,0,2,0,1,40,96,10,,,,,,,,,,,,,,,,,,,,,,,871.4231609000126,None,871.4231609000126,None,870.9228196000913,None,f,1.1792144000064582,871.4231609000126,None,,,,,,,,,,,,,f,001,2021_Jul_02_1155,toilet,2021.1.3,99.95941654023954,
180,180,4,-4,1.0,,,,,2,0,2,0,1,41,97,38,,,,,,,,,,,,,,,,,,,,,,,873.6046403000364,None,873.6046403000364,None,873.1042986999964,None,j,0.9978782999096438,873.6046403000364,None,,,,,,,,,,,,,f,001,2021_Jul_02_1155,toilet,2021.1.3,99.95941654023954,
0,180,4,-4,1.0,,,,,2,0,2,0,1,42,98,24,,,,,,,,,,,,,,,,,,,,,,,875.616002600058,None,875.616002600058,None,875.1156660000561,None,j,0.9543754000915214,875.616002600058,None,,,,,,,,,,,,,f,001,2021_Jul_02_1155,toilet,2021.1.3,99.95941654023954,
0,180,-4,4,1.0,,,,,2,0,2,0,1,43,99,17,,,,,,,,,,,,,,,,,,,,,,,877.577415500069,None,877.577415500069,None,877.077076000045,None,j,1.1209864999400452,877.577415500069,None,,,,,,,,,,,,,f,001,2021_Jul_02_1155,toilet,2021.1.3,99.95941654023954,
180,180,4,-4,0.97,,,,,2,0,2,0,1,44,100,37,,,,,,,,,,,,,,,,,,,,,,,879.698772600037,None,879.698772600037,None,879.1984256000724,None,j,0.9036871999269351,879.698772600037,None,,,,,,,,,,,,,f,001,2021_Jul_02_1155,toilet,2021.1.3,99.95941654023954,
180,0,-4,4,1.0,,,,,2,0,2,0,1,45,101,45,,,,,,,,,,,,,,,,,,,,,,,881.6100618999917,None,881.6100618999917,None,881.1097162000369,None,f,0.5603332000318915,881.6100618999917,None,,,,,,,,,,,,,f,001,2021_Jul_02_1155,toilet,2021.1.3,99.95941654023954,
180,0,4,-4,0.94,,,,,2,0,2,0,1,46,102,50,,,,,,,,,,,,,,,,,,,,,,,883.1711189000634,None,883.1711189000634,None,882.6707791000372,None,j,0.5192481999984011,883.1711189000634,None,,,,,,,,,,,,,f,001,2021_Jul_02_1155,toilet,2021.1.3,99.95941654023954,
180,0,-4,4,0.94,,,,,2,0,2,0,1,47,103,43,,,,,,,,,,,,,,,,,,,,,,,884.692246700055,None,884.692246700055,None,884.1918978000758,None,f,0.9341591999400407,884.692246700055,None,,,,,,,,,,,,,f,001,2021_Jul_02_1155,toilet,2021.1.3,99.95941654023954,
180,0,4,-4,1.03,,,,,2,0,2,0,1,48,104,53,,,,,,,,,,,,,,,,,,,,,,,886.633468199987,None,886.633468199987,None,886.1331193000078,None,j,0.9768821999896318,886.633468199987,None,,,,,,,,,,,,,f,001,2021_Jul_02_1155,toilet,2021.1.3,99.95941654023954,
0,180,-4,4,0.85,,,,,2,0,2,0,1,49,105,14,,,,,,,,,,,,,,,,,,,,,,,888.6148017999949,None,888.6148017999949,None,888.1144663000014,None,f,0.6117542999563739,888.6148017999949,None,,,,,,,,,,,,,f,001,2021_Jul_02_1155,toilet,2021.1.3,99.95941654023954,
180,180,4,-4,1.06,,,,,2,0,2,0,1,50,106,40,,,,,,,,,,,,,,,,,,,,,,,890.2359023999888,None,890.2359023999888,None,889.7355616000714,None,f,0.6707375999540091,890.2359023999888,None,,,,,,,,,,,,,f,001,2021_Jul_02_1155,toilet,2021.1.3,99.95941654023954,
0,180,-4,4,1.03,,,,,2,0,2,0,1,51,107,18,,,,,,,,,,,,,,,,,,,,,,,891.9170381000731,None,891.9170381000731,None,891.4167854000116,None,j,0.7334553999826312,891.9170381000731,None,,,,,,,,,,,,,f,001,2021_Jul_02_1155,toilet,2021.1.3,99.95941654023954,
0,0,-4,4,1.15,,,,,2,0,2,0,1,52,108,6,,,,,,,,,,,,,,,,,,,,,,,893.6582212999929,None,893.6582212999929,None,893.1578821000876,None,j,0.5762006000149995,893.6582212999929,None,,,,,,,,,,,,,f,001,2021_Jul_02_1155,toilet,2021.1.3,99.95941654023954,
0,0,4,-4,1.15,,,,,2,0,2,0,1,53,109,13,,,,,,,,,,,,,,,,,,,,,,,895.2392875000369,None,895.2392875000369,None,894.7389485000167,None,f,0.8672112999483943,895.2392875000369,None,,,,,,,,,,,,,f,001,2021_Jul_02_1155,toilet,2021.1.3,99.95941654023954,
0,0,-4,4,0.97,,,,,2,0,2,0,1,54,110,2,,,,,,,,,,,,,,,,,,,,,,,897.1305684000254,None,897.1305684000254,None,896.6302306000143,None,j,0.8639295999892056,897.1305684000254,None,,,,,,,,,,,,,f,001,2021_Jul_02_1155,toilet,2021.1.3,99.95941654023954,
180,180,-4,4,0.85,,,,,2,0,2,0,1,55,111,28,,,,,,,,,,,,,,,,,,,,,,,899.011849100003,None,899.011849100003,None,898.5116000000853,None,f,0.5827652999432757,899.011849100003,None,,,,,,,,,,,,,f,001,2021_Jul_02_1155,toilet,2021.1.3,99.95941654023954,
,,,,,,,,,2,0,2,0,,,,,,,,,,,,,,,,,,,,,,,,,,,,,,,,,,,,,899.6222937999992,None,space,15.588030199985951,899.6222937999992,None,,,,,,,f,001,2021_Jul_02_1155,toilet,2021.1.3,99.95941654023954,
180,180,4,-4,1.0,,,,,3,0,3,0,0,0,0,38,,,,,,,,,,,,,,,,,915.2328855000669,None,space,4.56949230004102,915.2328855000669,None,920.8166870999848,None,920.8166870999848,None,920.3162716000807,None,j,0.8577035000780597,920.8166870999848,None,,,,,,,,,,,,,f,001,2021_Jul_02_1155,toilet,2021.1.3,99.95941654023954,
0,0,4,-4,0.97,,,,,3,0,3,0,0,1,1,9,,,,,,,,,,,,,,,,,,,,,,,922.6778760000598,None,922.6778760000598,None,922.1775532000465,None,j,0.5965448000933975,922.6778760000598,None,,,,,,,,,,,,,f,001,2021_Jul_02_1155,toilet,2021.1.3,99.95941654023954,
0,180,-4,4,1.06,,,,,3,0,3,0,0,2,2,19,,,,,,,,,,,,,,,,,,,,,,,924.2789543000981,None,924.2789543000981,None,923.7786475000903,None,j,0.4834541999734938,924.2789543000981,None,,,,,,,,,,,,,f,001,2021_Jul_02_1155,toilet,2021.1.3,99.95941654023954,
0,0,4,-4,1.06,,,,,3,0,3,0,0,3,3,12,,,,,,,,,,,,,,,,,,,,,,,925.7699974999996,None,925.7699974999996,None,925.2696496000281,None,f,0.5764622999122366,925.7699974999996,None,,,,,,,,,,,,,f,001,2021_Jul_02_1155,toilet,2021.1.3,99.95941654023954,
180,0,4,-4,1.0,,,,,3,0,3,0,0,4,4,52,,,,,,,,,,,,,,,,,,,,,,,927.3710475000553,None,927.3710475000553,None,926.8707084000343,None,j,0.5275816000066698,927.3710475000553,None,,,,,,,,,,,,,f,001,2021_Jul_02_1155,toilet,2021.1.3,99.95941654023954,
180,180,-4,4,1.0,,,,,3,0,3,0,0,5,5,31,,,,,,,,,,,,,,,,,,,,,,,928.9120917000109,None,928.9120917000109,None,928.4118328000186,None,f,0.6503361000213772,928.9120917000109,None,,,,,,,,,,,,,f,001,2021_Jul_02_1155,toilet,2021.1.3,99.95941654023954,
180,180,4,-4,1.06,,,,,3,0,3,0,0,6,6,40,,,,,,,,,,,,,,,,,,,,,,,930.5732302000979,None,930.5732302000979,None,930.0728786000982,None,f,0.5250815000617877,930.5732302000979,None,,,,,,,,,,,,,f,001,2021_Jul_02_1155,toilet,2021.1.3,99.95941654023954,
180,180,-4,4,1.06,,,,,3,0,3,0,0,7,7,33,,,,,,,,,,,,,,,,,,,,,,,932.104259600048,None,932.104259600048,None,931.6039216000354,None,j,0.482160099898465,932.104259600048,None,,,,,,,,,,,,,f,001,2021_Jul_02_1155,toilet,2021.1.3,99.95941654023954,
0,180,4,-4,0.97,,,,,3,0,3,0,0,8,8,23,,,,,,,,,,,,,,,,,,,,,,,933.615277200006,None,933.615277200006,None,933.1149452000391,None,j,0.5551931000081822,933.615277200006,None,,,,,,,,,,,,,f,001,2021_Jul_02_1155,toilet,2021.1.3,99.95941654023954,
180,0,-4,4,0.97,,,,,3,0,3,0,0,9,9,44,,,,,,,,,,,,,,,,,,,,,,,935.1864420000929,None,935.1864420000929,None,934.6860040000174,None,f,0.8719979000743479,935.1864420000929,None,,,,,,,,,,,,,f,001,2021_Jul_02_1155,toilet,2021.1.3,99.95941654023954,
0,180,-4,4,1.0,,,,,3,0,3,0,0,10,10,17,,,,,,,,,,,,,,,,,,,,,,,937.0676382000092,None,937.0676382000092,None,936.56736310001,None,j,0.47865529998671263,937.0676382000092,None,,,,,,,,,,,,,f,001,2021_Jul_02_1155,toilet,2021.1.3,99.95941654023954,
180,180,4,-4,1.03,,,,,3,0,3,0,0,11,11,39,,,,,,,,,,,,,,,,,,,,,,,938.548624600051,None,938.548624600051,None,938.0482817000011,None,f,3.2537203000392765,938.548624600051,None,,,,,,,,,,,,,f,001,2021_Jul_02_1155,toilet,2021.1.3,99.95941654023954,
0,0,-4,4,1.0,,,,,3,0,3,0,0,12,12,3,,,,,,,,,,,,,,,,,,,,,,,942.821606200072,None,942.821606200072,None,942.3211715000216,None,j,0.7567869999911636,942.821606200072,None,,,,,,,,,,,,,f,001,2021_Jul_02_1155,toilet,2021.1.3,99.95941654023954,
180,0,4,-4,0.94,,,,,3,0,3,0,0,13,13,50,,,,,,,,,,,,,,,,,,,,,,,944.6027257000096,None,944.6027257000096,None,944.1023806000594,None,j,0.5116935999831185,944.6027257000096,None,,,,,,,,,,,,,f,001,2021_Jul_02_1155,toilet,2021.1.3,99.95941654023954,
180,180,4,-4,0.94,,,,,3,0,3,0,0,14,14,36,,,,,,,,,,,,,,,,,,,,,,,946.1137421000749,None,946.1137421000749,None,945.6134085000958,None,j,0.4726348000112921,946.1137421000749,None,,,,,,,,,,,,,f,001,2021_Jul_02_1155,toilet,2021.1.3,99.95941654023954,
0,180,4,-4,0.85,,,,,3,0,3,0,0,15,15,21,,,,,,,,,,,,,,,,,,,,,,,947.6147628000472,None,947.6147628000472,None,947.1144237000262,None,j,0.45960899989586323,947.6147628000472,None,,,,,,,,,,,,,f,001,2021_Jul_02_1155,toilet,2021.1.3,99.95941654023954,
0,180,-4,4,0.97,,,,,3,0,3,0,0,16,16,16,,,,,,,,,,,,,,,,,,,,,,,949.0857546000043,None,949.0857546000043,None,948.5854163999902,None,f,0.5247574000386521,949.0857546000043,None,,,,,,,,,,,,,f,001,2021_Jul_02_1155,toilet,2021.1.3,99.95941654023954,
180,180,4,-4,0.97,,,,,3,0,3,0,0,17,17,37,,,,,,,,,,,,,,,,,,,,,,,950.6368833000306,None,950.6368833000306,None,950.1364642999833,None,f,0.6693892000475898,950.6368833000306,None,,,,,,,,,,,,,f,001,2021_Jul_02_1155,toilet,2021.1.3,99.95941654023954,
0,180,4,-4,0.94,,,,,3,0,3,0,0,18,18,22,,,,,,,,,,,,,,,,,,,,,,,952.3179419999942,None,952.3179419999942,None,951.8176112000365,None,j,0.49244619999080896,952.3179419999942,None,,,,,,,,,,,,,f,001,2021_Jul_02_1155,toilet,2021.1.3,99.95941654023954,
180,0,-4,4,1.15,,,,,3,0,3,0,0,19,19,48,,,,,,,,,,,,,,,,,,,,,,,953.8189601000631,None,953.8189601000631,None,953.3186217000475,None,j,0.39943340001627803,953.8189601000631,None,,,,,,,,,,,,,f,001,2021_Jul_02_1155,toilet,2021.1.3,99.95941654023954,
180,0,-4,4,0.94,,,,,3,0,3,0,0,20,20,43,,,,,,,,,,,,,,,,,,,,,,,955.2299189000623,None,955.2299189000623,None,954.7295786000323,None,f,0.476508800056763,955.2299189000623,None,,,,,,,,,,,,,f,001,2021_Jul_02_1155,toilet,2021.1.3,99.95941654023954,
180,0,4,-4,0.85,,,,,3,0,3,0,0,21,21,49,,,,,,,,,,,,,,,,,,,,,,,956.7309345999965,None,956.7309345999965,None,956.2305947000859,None,j,0.4476607999531552,956.7309345999965,None,,,,,,,,,,,,,f,001,2021_Jul_02_1155,toilet,2021.1.3,99.95941654023954,
0,0,4,-4,0.94,,,,,3,0,3,0,0,22,22,8,,,,,,,,,,,,,,,,,,,,,,,958.181994899991,None,958.181994899991,None,957.6916754000122,None,j,0.43635319999884814,958.181994899991,None,,,,,,,,,,,,,f,001,2021_Jul_02_1155,toilet,2021.1.3,99.95941654023954,
0,180,-4,4,0.94,,,,,3,0,3,0,0,23,23,15,,,,,,,,,,,,,,,,,,,,,,,959.6329021999845,None,959.6329021999845,None,959.1325614000671,None,f,0.48937019996810704,959.6329021999845,None,,,,,,,,,,,,,f,001,2021_Jul_02_1155,toilet,2021.1.3,99.95941654023954,
0,0,4,-4,1.0,,,,,3,0,3,0,0,24,24,10,,,,,,,,,,,,,,,,,,,,,,,961.123919100035,None,961.123919100035,None,960.6235771999927,None,j,0.9023524000076577,961.123919100035,None,,,,,,,,,,,,,f,001,2021_Jul_02_1155,toilet,2021.1.3,99.95941654023954,
0,180,4,-4,1.06,,,,,3,0,3,0,0,25,25,26,,,,,,,,,,,,,,,,,,,,,,,963.0352011000505,None,963.0352011000505,None,962.5348641000455,None,f,0.5752525000134483,963.0352011000505,None,,,,,,,,,,,,,f,001,2021_Jul_02_1155,toilet,2021.1.3,99.95941654023954,
180,0,-4,4,1.06,,,,,3,0,3,0,0,26,26,47,,,,,,,,,,,,,,,,,,,,,,,964.6263200000394,None,964.6263200000394,None,964.1359482000116,None,j,0.45595370000228286,964.6263200000394,None,,,,,,,,,,,,,f,001,2021_Jul_02_1155,toilet,2021.1.3,99.95941654023954,
180,180,-4,4,0.97,,,,,3,0,3,0,0,27,27,30,,,,,,,,,,,,,,,,,,,,,,,966.0973484000424,None,966.0973484000424,None,965.5970114000374,None,f,0.6168754999525845,966.0973484000424,None,,,,,,,,,,,,,f,001,2021_Jul_02_1155,toilet,2021.1.3,99.95941654023954,
0,0,-4,4,0.97,,,,,3,0,3,0,0,28,28,2,,,,,,,,,,,,,,,,,,,,,,,967.718372900039,None,967.718372900039,None,967.2180417000782,None,f,0.5959513999987394,967.718372900039,None,,,,,,,,,,,,,f,001,2021_Jul_02_1155,toilet,2021.1.3,99.95941654023954,
0,0,4,-4,1.15,,,,,3,0,3,0,0,29,29,13,,,,,,,,,,,,,,,,,,,,,,,969.3194674000842,None,969.3194674000842,None,968.8191239000298,None,f,0.4829256000230089,969.3194674000842,None,,,,,,,,,,,,,f,001,2021_Jul_02_1155,toilet,2021.1.3,99.95941654023954,
180,0,4,-4,0.97,,,,,3,0,3,0,0,30,30,51,,,,,,,,,,,,,,,,,,,,,,,970.830480900011,None,970.830480900011,None,970.330149400048,None,j,0.3957528999308124,970.830480900011,None,,,,,,,,,,,,,f,001,2021_Jul_02_1155,toilet,2021.1.3,99.95941654023954,
0,0,-4,4,1.03,,,,,3,0,3,0,0,31,31,4,,,,,,,,,,,,,,,,,,,,,,,972.2315061000409,None,972.2315061000409,None,971.7310929000378,None,j,0.5629316000267863,972.2315061000409,None,,,,,,,,,,,,,f,001,2021_Jul_02_1155,toilet,2021.1.3,99.95941654023954,
180,0,4,-4,1.15,,,,,3,0,3,0,0,32,32,55,,,,,,,,,,,,,,,,,,,,,,,973.8125252000755,None,973.8125252000755,None,973.3122598000336,None,f,0.46975389996077865,973.8125252000755,None,,,,,,,,,,,,,f,001,2021_Jul_02_1155,toilet,2021.1.3,99.95941654023954,
180,180,-4,4,1.03,,,,,3,0,3,0,0,33,33,32,,,,,,,,,,,,,,,,,,,,,,,975.2835283000022,None,975.2835283000022,None,974.7831590999849,None,j,0.4867742999922484,975.2835283000022,None,,,,,,,,,,,,,f,001,2021_Jul_02_1155,toilet,2021.1.3,99.95941654023954,
0,0,-4,4,0.94,,,,,3,0,3,0,0,34,34,1,,,,,,,,,,,,,,,,,,,,,,,976.7745094000129,None,976.7745094000129,None,976.2741707999958,None,f,0.4197411999339238,976.7745094000129,None,,,,,,,,,,,,,f,001,2021_Jul_02_1155,toilet,2021.1.3,99.95941654023954,
0,0,4,-4,0.85,,,,,3,0,3,0,0,35,35,7,,,,,,,,,,,,,,,,,,,,,,,978.195498200017,None,978.195498200017,None,977.6951326000271,None,j,0.37497370003256947,978.195498200017,None,,,,,,,,,,,,,f,001,2021_Jul_02_1155,toilet,2021.1.3,99.95941654023954,
180,0,4,-4,1.03,,,,,3,0,3,0,0,36,36,53,,,,,,,,,,,,,,,,,,,,,,,979.5864964000648,None,979.5864964000648,None,979.0861092000268,None,f,0.5519771999679506,979.5864964000648,None,,,,,,,,,,,,,f,001,2021_Jul_02_1155,toilet,2021.1.3,99.95941654023954,
180,0,-4,4,0.85,,,,,3,0,3,0,0,37,37,42,,,,,,,,,,,,,,,,,,,,,,,981.1475055000046,None,981.1475055000046,None,980.6471330000786,None,f,0.510719999903813,981.1475055000046,None,,,,,,,,,,,,,f,001,2021_Jul_02_1155,toilet,2021.1.3,99.95941654023954,
180,180,-4,4,0.94,,,,,3,0,3,0,0,38,38,29,,,,,,,,,,,,,,,,,,,,,,,982.6585236000828,None,982.6585236000828,None,982.1581565000815,None,f,0.5197424000361934,982.6585236000828,None,,,,,,,,,,,,,f,001,2021_Jul_02_1155,toilet,2021.1.3,99.95941654023954,
0,180,-4,4,0.85,,,,,3,0,3,0,0,39,39,14,,,,,,,,,,,,,,,,,,,,,,,984.1795397000387,None,984.1795397000387,None,983.6791892000474,None,f,0.4869290000060573,984.1795397000387,None,,,,,,,,,,,,,f,001,2021_Jul_02_1155,toilet,2021.1.3,99.95941654023954,
180,180,4,-4,1.15,,,,,3,0,3,0,0,40,40,41,,,,,,,,,,,,,,,,,,,,,,,985.6805441000033,None,985.6805441000033,None,985.1802001000615,None,f,0.5058565000072122,985.6805441000033,None,,,,,,,,,,,,,f,001,2021_Jul_02_1155,toilet,2021.1.3,99.95941654023954,
0,0,-4,4,1.15,,,,,3,0,3,0,0,41,41,6,,,,,,,,,,,,,,,,,,,,,,,987.2116630000528,None,987.2116630000528,None,986.711233500042,None,j,0.4307930999202654,987.2116630000528,None,,,,,,,,,,,,,f,001,2021_Jul_02_1155,toilet,2021.1.3,99.95941654023954,
0,180,4,-4,1.0,,,,,3,0,3,0,0,42,42,24,,,,,,,,,,,,,,,,,,,,,,,988.652561700088,None,988.652561700088,None,988.1522109000944,None,f,0.8778186000417918,988.652561700088,None,,,,,,,,,,,,,f,001,2021_Jul_02_1155,toilet,2021.1.3,99.95941654023954,
180,0,4,-4,1.06,,,,,3,0,3,0,0,43,43,54,,,,,,,,,,,,,,,,,,,,,,,990.533824800048,None,990.533824800048,None,990.0334901000606,None,f,0.7885815999470651,990.533824800048,None,,,,,,,,,,,,,f,001,2021_Jul_02_1155,toilet,2021.1.3,99.95941654023954,
0,0,4,-4,1.03,,,,,3,0,3,0,0,44,44,11,,,,,,,,,,,,,,,,,,,,,,,992.3350487999851,None,992.3350487999851,None,991.8347046000417,None,j,0.6033518000040203,992.3350487999851,None,,,,,,,,,,,,,f,001,2021_Jul_02_1155,toilet,2021.1.3,99.95941654023954,
180,0,-4,4,1.03,,,,,3,0,3,0,0,45,45,46,,,,,,,,,,,,,,,,,,,,,,,993.9561406000284,None,993.9561406000284,None,993.4558090000646,None,j,0.6301875999197364,993.9561406000284,None,,,,,,,,,,,,,f,001,2021_Jul_02_1155,toilet,2021.1.3,99.95941654023954,
180,180,-4,4,1.15,,,,,3,0,3,0,0,46,46,34,,,,,,,,,,,,,,,,,,,,,,,995.5873426999897,None,995.5873426999897,None,995.0870032000821,None,j,0.5508762000827119,995.5873426999897,None,,,,,,,,,,,,,f,001,2021_Jul_02_1155,toilet,2021.1.3,99.95941654023954,
0,180,4,-4,1.15,,,,,3,0,3,0,0,47,47,27,,,,,,,,,,,,,,,,,,,,,,,997.1383077000501,None,997.1383077000501,None,996.6379630999872,None,f,0.6799519000342116,997.1383077000501,None,,,,,,,,,,,,,f,001,2021_Jul_02_1155,toilet,2021.1.3,99.95941654023954,
180,180,4,-4,0.85,,,,,3,0,3,0,0,48,48,35,,,,,,,,,,,,,,,,,,,,,,,998.8194398999913,None,998.8194398999913,None,998.3190996000776,None,j,0.43892850005067885,998.8194398999913,None,,,,,,,,,,,,,f,001,2021_Jul_02_1155,toilet,2021.1.3,99.95941654023954,
0,180,4,-4,1.03,,,,,3,0,3,0,0,49,49,25,,,,,,,,,,,,,,,,,,,,,,,1000.2704232000979,None,1000.2704232000979,None,999.7700846000807,None,f,1.9318994999630377,1000.2704232000979,None,,,,,,,,,,,,,f,001,2021_Jul_02_1155,toilet,2021.1.3,99.95941654023954,
