ori_st,ori_pr,xpos_st,xpos_pr,size,trials_3.thisRepN,trials_3.thisTrialN,trials_3.thisN,trials_3.thisIndex,trials_2.thisRepN,trials_2.thisTrialN,trials_2.thisN,trials_2.thisIndex,trials.thisRepN,trials.thisTrialN,trials.thisN,trials.thisIndex,wel_pra.started,wel_pra.stopped,resp_wel.keys,resp_wel.rt,resp_wel.started,resp_wel.stopped,standard_pra.started,standard_pra.stopped,prove_pra.started,prove_pra.stopped,fixation.started,fixation.stopped,resp_pra.keys,resp_pra.rt,resp_pra.started,resp_pra.stopped,instr.started,instr.stopped,key_resp_2.keys,key_resp_2.rt,key_resp_2.started,key_resp_2.stopped,standard.started,standard.stopped,probe.started,probe.stopped,text.started,text.stopped,resp.keys,resp.rt,resp.started,resp.stopped,text_2.started,text_2.stopped,key_resp.keys,key_resp.rt,key_resp.started,key_resp.stopped,text_3.started,text_3.stopped,key_resp_3.keys,key_resp_3.rt,key_resp_3.started,key_resp_3.stopped,participant,session,date,expName,psychopyVersion,frameRate,
,,,,,,,,,,,,,,,,,15.678273199941032,None,space,174.79365920007695,15.678273199941032,None,,,,,,,,,,,,,,,,,,,,,,,,,,,,,,,,,,,,,,,t,001,2021_Jul_13_1502,toilet,2021.1.3,99.86986952249822,
180,0,-4,4,1.15,0,0,0,15,,,,,,,,,,,,,,,191.51543859997764,None,191.51543859997764,None,191.01504509989172,None,j,12.620320799993351,191.51543859997764,None,,,,,,,,,,,,,,,,,,,,,,,,,,,,,t,001,2021_Jul_13_1502,toilet,2021.1.3,99.86986952249822,
0,180,4,-4,0.85,0,1,1,5,,,,,,,,,,,,,,,205.14459579996765,None,205.14459579996765,None,204.64424889988732,None,j,2.25524139998015,205.14459579996765,None,,,,,,,,,,,,,,,,,,,,,,,,,,,,,t,001,2021_Jul_13_1502,toilet,2021.1.3,99.86986952249822,
180,180,-4,4,1.15,0,2,2,10,,,,,,,,,,,,,,,208.4068015998928,None,208.4068015998928,None,207.9064626999898,None,j,1.457097899983637,208.4068015998928,None,,,,,,,,,,,,,,,,,,,,,,,,,,,,,t,001,2021_Jul_13_1502,toilet,2021.1.3,99.86986952249822,
0,0,4,-4,0.85,0,3,3,1,,,,,,,,,,,,,,,210.87847709993366,None,210.87847709993366,None,210.37813889991958,None,j,1.513386799953878,210.87847709993366,None,,,,,,,,,,,,,,,,,,,,,,,,,,,,,t,001,2021_Jul_13_1502,toilet,2021.1.3,99.86986952249822,
180,180,-4,4,1.15,0,4,4,11,,,,,,,,,,,,,,,213.41018979996443,None,213.41018979996443,None,212.90994039992802,None,j,1.4135132000083104,213.41018979996443,None,,,,,,,,,,,,,,,,,,,,,,,,,,,,,t,001,2021_Jul_13_1502,toilet,2021.1.3,99.86986952249822,
0,0,-4,4,0.85,0,5,5,0,,,,,,,,,,,,,,,215.83186119992752,None,215.83186119992752,None,215.33149209991097,None,f,0.783822099911049,215.83186119992752,None,,,,,,,,,,,,,,,,,,,,,,,,,,,,,t,001,2021_Jul_13_1502,toilet,2021.1.3,99.86986952249822,
180,0,-4,4,1.15,0,6,6,14,,,,,,,,,,,,,,,217.6430727998959,None,217.6430727998959,None,217.14272249990609,None,j,0.4927172999596223,217.6430727998959,None,,,,,,,,,,,,,,,,,,,,,,,,,,,,,t,001,2021_Jul_13_1502,toilet,2021.1.3,99.86986952249822,
0,180,4,-4,1.15,0,7,7,7,,,,,,,,,,,,,,,219.15408059989568,None,219.15408059989568,None,218.6537400999805,None,f,0.5496641000499949,219.15408059989568,None,,,,,,,,,,,,,,,,,,,,,,,,,,,,,t,001,2021_Jul_13_1502,toilet,2021.1.3,99.86986952249822,
0,0,-4,4,1.15,0,8,8,2,,,,,,,,,,,,,,,220.7152302999748,None,220.7152302999748,None,220.21489559998736,None,j,0.4446012999396771,220.7152302999748,None,,,,,,,,,,,,,,,,,,,,,,,,,,,,,t,001,2021_Jul_13_1502,toilet,2021.1.3,99.86986952249822,
0,180,-4,4,0.85,0,9,9,4,,,,,,,,,,,,,,,222.17612889991142,None,222.17612889991142,None,221.67581009992864,None,f,0.407648199936375,222.17612889991142,None,,,,,,,,,,,,,,,,,,,,,,,,,,,,,t,001,2021_Jul_13_1502,toilet,2021.1.3,99.86986952249822,
180,0,-4,4,0.85,0,10,10,12,,,,,,,,,,,,,,,223.5871182999108,None,223.5871182999108,None,223.08674849988893,None,f,1.2048914999468252,223.5871182999108,None,,,,,,,,,,,,,,,,,,,,,,,,,,,,,t,001,2021_Jul_13_1502,toilet,2021.1.3,99.86986952249822,
0,0,4,-4,1.15,0,11,11,3,,,,,,,,,,,,,,,225.8085996999871,None,225.8085996999871,None,225.3082570999395,None,f,0.487360900035128,225.8085996999871,None,,,,,,,,,,,,,,,,,,,,,,,,,,,,,t,001,2021_Jul_13_1502,toilet,2021.1.3,99.86986952249822,
0,180,-4,4,1.15,0,12,12,6,,,,,,,,,,,,,,,227.3096148999175,None,227.3096148999175,None,226.8093139999546,None,j,0.4743868999648839,227.3096148999175,None,,,,,,,,,,,,,,,,,,,,,,,,,,,,,t,001,2021_Jul_13_1502,toilet,2021.1.3,99.86986952249822,
180,0,-4,4,0.85,0,13,13,13,,,,,,,,,,,,,,,228.8006608999567,None,228.8006608999567,None,228.3003643999109,None,f,0.4070346000371501,228.8006608999567,None,,,,,,,,,,,,,,,,,,,,,,,,,,,,,t,001,2021_Jul_13_1502,toilet,2021.1.3,99.86986952249822,
180,180,-4,4,0.85,0,14,14,9,,,,,,,,,,,,,,,230.2115816998994,None,230.2115816998994,None,229.7112525999546,None,f,0.3882226999849081,230.2115816998994,None,,,,,,,,,,,,,,,,,,,,,,,,,,,,,t,001,2021_Jul_13_1502,toilet,2021.1.3,99.86986952249822,
180,180,-4,4,0.85,0,15,15,8,,,,,,,,,,,,,,,231.6025260000024,None,231.6025260000024,None,231.10218699998222,None,f,0.38927369995508343,231.6025260000024,None,,,,,,,,,,,,,,,,,,,,,,,,,,,,,t,001,2021_Jul_13_1502,toilet,2021.1.3,99.86986952249822,
0,0,4,-4,0.85,,,,,0,0,0,0,0,0,0,7,,,,,,,,,,,,,,,,,232.01285499997903,None,space,66.93909110000823,232.01285499997903,None,299.9688753999071,None,299.9688753999071,None,299.46854049991816,None,j,0.8549434000160545,299.9688753999071,None,,,,,,,,,,,,,t,001,2021_Jul_13_1502,toilet,2021.1.3,99.86986952249822,
0,180,4,-4,1.06,,,,,0,0,0,0,0,1,1,26,,,,,,,,,,,,,,,,,,,,,,,301.830232599983,None,301.830232599983,None,301.3298935999628,None,f,0.5615651999833062,301.830232599983,None,,,,,,,,,,,,,t,001,2021_Jul_13_1502,toilet,2021.1.3,99.86986952249822,
0,0,-4,4,0.85,,,,,0,0,0,0,0,2,2,0,,,,,,,,,,,,,,,,,,,,,,,303.401203299989,None,303.401203299989,None,302.9008764999453,None,f,0.7504991000751033,303.401203299989,None,,,,,,,,,,,,,t,001,2021_Jul_13_1502,toilet,2021.1.3,99.86986952249822,
0,180,-4,4,0.94,,,,,0,0,0,0,0,3,3,15,,,,,,,,,,,,,,,,,,,,,,,305.152394499979,None,305.152394499979,None,304.6520585999824,None,j,0.4394105999963358,305.152394499979,None,,,,,,,,,,,,,t,001,2021_Jul_13_1502,toilet,2021.1.3,99.86986952249822,
0,180,-4,4,0.97,,,,,0,0,0,0,0,4,4,16,,,,,,,,,,,,,,,,,,,,,,,306.60337499994785,None,306.60337499994785,None,306.1030363999307,None,j,2.92442089994438,306.60337499994785,None,,,,,,,,,,,,,t,001,2021_Jul_13_1502,toilet,2021.1.3,99.86986952249822,
180,0,4,-4,0.85,,,,,0,0,0,0,0,5,5,49,,,,,,,,,,,,,,,,,,,,,,,310.5360396999167,None,310.5360396999167,None,310.03573429991957,None,j,0.4956726999953389,310.5360396999167,None,,,,,,,,,,,,,t,001,2021_Jul_13_1502,toilet,2021.1.3,99.86986952249822,
180,180,-4,4,0.85,,,,,0,0,0,0,0,6,6,28,,,,,,,,,,,,,,,,,,,,,,,312.03706109989434,None,312.03706109989434,None,311.5367256999016,None,f,0.6426939000375569,312.03706109989434,None,,,,,,,,,,,,,t,001,2021_Jul_13_1502,toilet,2021.1.3,99.86986952249822,
180,0,4,-4,1.06,,,,,0,0,0,0,0,7,7,54,,,,,,,,,,,,,,,,,,,,,,,313.6881835999666,None,313.6881835999666,None,313.1878450999502,None,f,0.8795631000539288,313.6881835999666,None,,,,,,,,,,,,,t,001,2021_Jul_13_1502,toilet,2021.1.3,99.86986952249822,
180,0,-4,4,0.85,,,,,0,0,0,0,0,8,8,42,,,,,,,,,,,,,,,,,,,,,,,315.57946319994517,None,315.57946319994517,None,315.07919699989725,None,f,5.212189499987289,315.57946319994517,None,,,,,,,,,,,,,t,001,2021_Jul_13_1502,toilet,2021.1.3,99.86986952249822,
0,180,-4,4,1.15,,,,,0,0,0,0,0,9,9,20,,,,,,,,,,,,,,,,,,,,,,,321.79368709994014,None,321.79368709994014,None,321.29333129990846,None,j,0.5180461999261752,321.79368709994014,None,,,,,,,,,,,,,t,001,2021_Jul_13_1502,toilet,2021.1.3,99.86986952249822,
180,180,4,-4,0.97,,,,,0,0,0,0,0,10,10,37,,,,,,,,,,,,,,,,,,,,,,,323.3247218999313,None,323.3247218999313,None,322.82445119996555,None,j,0.9070239999564365,323.3247218999313,None,,,,,,,,,,,,,t,001,2021_Jul_13_1502,toilet,2021.1.3,99.86986952249822,
180,180,4,-4,1.06,,,,,0,0,0,0,0,11,11,40,,,,,,,,,,,,,,,,,,,,,,,325.24601619993336,None,325.24601619993336,None,324.745690099895,None,f,0.7617874999996275,325.24601619993336,None,,,,,,,,,,,,,t,001,2021_Jul_13_1502,toilet,2021.1.3,99.86986952249822,
0,180,4,-4,0.85,,,,,0,0,0,0,0,12,12,21,,,,,,,,,,,,,,,,,,,,,,,327.01721759990323,None,327.01721759990323,None,326.51687609998044,None,j,0.47844780003651977,327.01721759990323,None,,,,,,,,,,,,,t,001,2021_Jul_13_1502,toilet,2021.1.3,99.86986952249822,
0,0,4,-4,0.94,,,,,0,0,0,0,0,13,13,8,,,,,,,,,,,,,,,,,,,,,,,328.49822349997703,None,328.49822349997703,None,327.9978785999119,None,j,2.117559100035578,328.49822349997703,None,,,,,,,,,,,,,t,001,2021_Jul_13_1502,toilet,2021.1.3,99.86986952249822,
0,0,4,-4,1.0,,,,,0,0,0,0,0,14,14,10,,,,,,,,,,,,,,,,,,,,,,,331.6304192999378,None,331.6304192999378,None,331.13004109996837,None,j,1.0492268999805674,331.6304192999378,None,,,,,,,,,,,,,t,001,2021_Jul_13_1502,toilet,2021.1.3,99.86986952249822,
0,0,-4,4,0.97,,,,,0,0,0,0,0,15,15,2,,,,,,,,,,,,,,,,,,,,,,,333.6817409999203,None,333.6817409999203,None,333.18140739994124,None,f,0.7579276999458671,333.6817409999203,None,,,,,,,,,,,,,t,001,2021_Jul_13_1502,toilet,2021.1.3,99.86986952249822,
0,180,-4,4,1.03,,,,,0,0,0,0,0,16,16,18,,,,,,,,,,,,,,,,,,,,,,,335.4529319999274,None,335.4529319999274,None,334.9526025999803,None,j,0.4427459000144154,335.4529319999274,None,,,,,,,,,,,,,t,001,2021_Jul_13_1502,toilet,2021.1.3,99.86986952249822,
180,0,4,-4,0.97,,,,,0,0,0,0,0,17,17,51,,,,,,,,,,,,,,,,,,,,,,,336.92393999989145,None,336.92393999989145,None,336.42359079991,None,j,0.5397882000543177,336.92393999989145,None,,,,,,,,,,,,,t,001,2021_Jul_13_1502,toilet,2021.1.3,99.86986952249822,
0,180,4,-4,0.97,,,,,0,0,0,0,0,18,18,23,,,,,,,,,,,,,,,,,,,,,,,338.4750633999938,None,338.4750633999938,None,337.9747185999295,None,j,0.5565287000499666,338.4750633999938,None,,,,,,,,,,,,,t,001,2021_Jul_13_1502,toilet,2021.1.3,99.86986952249822,
0,0,4,-4,1.15,,,,,0,0,0,0,0,19,19,13,,,,,,,,,,,,,,,,,,,,,,,340.03603550000116,None,340.03603550000116,None,339.5357747999951,None,f,0.5157296999823302,340.03603550000116,None,,,,,,,,,,,,,t,001,2021_Jul_13_1502,toilet,2021.1.3,99.86986952249822,
180,0,-4,4,0.94,,,,,0,0,0,0,0,20,20,43,,,,,,,,,,,,,,,,,,,,,,,341.5570713999914,None,341.5570713999914,None,341.05673549999483,None,j,0.5465478000696748,341.5570713999914,None,,,,,,,,,,,,,t,001,2021_Jul_13_1502,toilet,2021.1.3,99.86986952249822,
0,180,4,-4,1.0,,,,,0,0,0,0,0,21,21,24,,,,,,,,,,,,,,,,,,,,,,,343.10812859993894,None,343.10812859993894,None,342.60778829990886,None,f,1.811574999941513,343.10812859993894,None,,,,,,,,,,,,,t,001,2021_Jul_13_1502,toilet,2021.1.3,99.86986952249822,
180,0,-4,4,0.97,,,,,0,0,0,0,0,22,22,44,,,,,,,,,,,,,,,,,,,,,,,345.92004949995317,None,345.92004949995317,None,345.4197680999059,None,f,0.7756934000644833,345.92004949995317,None,,,,,,,,,,,,,t,001,2021_Jul_13_1502,toilet,2021.1.3,99.86986952249822,
180,0,4,-4,1.03,,,,,0,0,0,0,0,23,23,53,,,,,,,,,,,,,,,,,,,,,,,347.71125039993785,None,347.71125039993785,None,347.210907499888,None,f,0.7283958999905735,347.71125039993785,None,,,,,,,,,,,,,t,001,2021_Jul_13_1502,toilet,2021.1.3,99.86986952249822,
0,180,-4,4,1.06,,,,,0,0,0,0,0,24,24,19,,,,,,,,,,,,,,,,,,,,,,,349.4424112999113,None,349.4424112999113,None,348.94208029995207,None,j,0.5333366999402642,349.4424112999113,None,,,,,,,,,,,,,t,001,2021_Jul_13_1502,toilet,2021.1.3,99.86986952249822,
180,180,4,-4,1.15,,,,,0,0,0,0,0,25,25,41,,,,,,,,,,,,,,,,,,,,,,,350.99347269989084,None,350.99347269989084,None,350.4931247999193,None,f,0.5344410999678075,350.99347269989084,None,,,,,,,,,,,,,t,001,2021_Jul_13_1502,toilet,2021.1.3,99.86986952249822,
0,180,4,-4,0.94,,,,,0,0,0,0,0,26,26,22,,,,,,,,,,,,,,,,,,,,,,,352.54452659992967,None,352.54452659992967,None,352.04425939999055,None,j,0.503250899957493,352.54452659992967,None,,,,,,,,,,,,,t,001,2021_Jul_13_1502,toilet,2021.1.3,99.86986952249822,
180,180,4,-4,0.85,,,,,0,0,0,0,0,27,27,35,,,,,,,,,,,,,,,,,,,,,,,354.0655945999315,None,354.0655945999315,None,353.5653151998995,None,j,0.48603400005958974,354.0655945999315,None,,,,,,,,,,,,,t,001,2021_Jul_13_1502,toilet,2021.1.3,99.86986952249822,
0,180,4,-4,1.03,,,,,0,0,0,0,0,28,28,25,,,,,,,,,,,,,,,,,,,,,,,355.55656810000073,None,355.55656810000073,None,355.0562270999653,None,f,1.123153500026092,355.55656810000073,None,,,,,,,,,,,,,t,001,2021_Jul_13_1502,toilet,2021.1.3,99.86986952249822,
0,0,4,-4,0.97,,,,,0,0,0,0,0,29,29,9,,,,,,,,,,,,,,,,,,,,,,,357.6880135999527,None,357.6880135999527,None,357.18767009989824,None,j,1.1677381000481546,357.6880135999527,None,,,,,,,,,,,,,t,001,2021_Jul_13_1502,toilet,2021.1.3,99.86986952249822,
180,0,-4,4,1.03,,,,,0,0,0,0,0,30,30,46,,,,,,,,,,,,,,,,,,,,,,,359.8595674999524,None,359.8595674999524,None,359.359143699985,None,j,0.6122036000015214,359.8595674999524,None,,,,,,,,,,,,,t,001,2021_Jul_13_1502,toilet,2021.1.3,99.86986952249822,
180,180,-4,4,0.97,,,,,0,0,0,0,0,31,31,30,,,,,,,,,,,,,,,,,,,,,,,361.4906182999257,None,361.4906182999257,None,360.99032739992253,None,f,0.9171397000318393,361.4906182999257,None,,,,,,,,,,,,,t,001,2021_Jul_13_1502,toilet,2021.1.3,99.86986952249822,
0,0,-4,4,1.06,,,,,0,0,0,0,0,32,32,5,,,,,,,,,,,,,,,,,,,,,,,363.4118934998987,None,363.4118934998987,None,362.91155009996146,None,j,1.939828100032173,363.4118934998987,None,,,,,,,,,,,,,t,001,2021_Jul_13_1502,toilet,2021.1.3,99.86986952249822,
180,180,-4,4,0.94,,,,,0,0,0,0,0,33,33,29,,,,,,,,,,,,,,,,,,,,,,,366.36389199993573,None,366.36389199993573,None,365.86355219990946,None,f,0.6518365999218076,366.36389199993573,None,,,,,,,,,,,,,t,001,2021_Jul_13_1502,toilet,2021.1.3,99.86986952249822,
0,180,-4,4,0.85,,,,,0,0,0,0,0,34,34,14,,,,,,,,,,,,,,,,,,,,,,,368.015085299965,None,368.015085299965,None,367.514764499967,None,f,0.5845295999897644,368.015085299965,None,,,,,,,,,,,,,t,001,2021_Jul_13_1502,toilet,2021.1.3,99.86986952249822,
180,0,4,-4,1.0,,,,,0,0,0,0,0,35,35,52,,,,,,,,,,,,,,,,,,,,,,,369.6060803999426,None,369.6060803999426,None,369.1057845999021,None,j,1.2817457999335602,369.6060803999426,None,,,,,,,,,,,,,t,001,2021_Jul_13_1502,toilet,2021.1.3,99.86986952249822,
180,180,4,-4,1.03,,,,,0,0,0,0,0,36,36,39,,,,,,,,,,,,,,,,,,,,,,,371.8876364999451,None,371.8876364999451,None,371.3872974999249,None,f,2.1041523999301717,371.8876364999451,None,,,,,,,,,,,,,t,001,2021_Jul_13_1502,toilet,2021.1.3,99.86986952249822,
0,0,4,-4,1.03,,,,,0,0,0,0,0,37,37,11,,,,,,,,,,,,,,,,,,,,,,,375.00975979992654,None,375.00975979992654,None,374.50949329999276,None,f,0.8060048000188544,375.00975979992654,None,,,,,,,,,,,,,t,001,2021_Jul_13_1502,toilet,2021.1.3,99.86986952249822,
0,180,-4,4,1.0,,,,,0,0,0,0,0,38,38,17,,,,,,,,,,,,,,,,,,,,,,,376.8309937999584,None,376.8309937999584,None,376.33073019993026,None,j,1.1766328000230715,376.8309937999584,None,,,,,,,,,,,,,t,001,2021_Jul_13_1502,toilet,2021.1.3,99.86986952249822,
180,180,4,-4,1.0,,,,,0,0,0,0,0,39,39,38,,,,,,,,,,,,,,,,,,,,,,,379.01246499991976,None,379.01246499991976,None,378.51213519996963,None,f,1.187172899954021,379.01246499991976,None,,,,,,,,,,,,,t,001,2021_Jul_13_1502,toilet,2021.1.3,99.86986952249822,
180,0,-4,4,1.0,,,,,0,0,0,0,0,40,40,45,,,,,,,,,,,,,,,,,,,,,,,381.203967899899,None,381.203967899899,None,380.7036110999761,None,f,2.675828699953854,381.203967899899,None,,,,,,,,,,,,,t,001,2021_Jul_13_1502,toilet,2021.1.3,99.86986952249822,
180,0,4,-4,1.15,,,,,0,0,0,0,0,41,41,55,,,,,,,,,,,,,,,,,,,,,,,384.8864512,None,384.8864512,None,384.38611399999354,None,f,0.7532811999553815,384.8864512,None,,,,,,,,,,,,,t,001,2021_Jul_13_1502,toilet,2021.1.3,99.86986952249822,
0,0,-4,4,1.0,,,,,0,0,0,0,0,42,42,3,,,,,,,,,,,,,,,,,,,,,,,386.6476438998943,None,386.6476438998943,None,386.1473026999738,None,j,0.6242324999766424,386.6476438998943,None,,,,,,,,,,,,,t,001,2021_Jul_13_1502,toilet,2021.1.3,99.86986952249822,
0,0,-4,4,0.94,,,,,0,0,0,0,0,43,43,1,,,,,,,,,,,,,,,,,,,,,,,388.28875529998913,None,388.28875529998913,None,387.7884200999979,None,f,0.582922299974598,388.28875529998913,None,,,,,,,,,,,,,t,001,2021_Jul_13_1502,toilet,2021.1.3,99.86986952249822,
180,180,4,-4,0.94,,,,,0,0,0,0,0,44,44,36,,,,,,,,,,,,,,,,,,,,,,,389.88991099991836,None,389.88991099991836,None,389.3895059999777,None,j,0.5017526999581605,389.88991099991836,None,,,,,,,,,,,,,t,001,2021_Jul_13_1502,toilet,2021.1.3,99.86986952249822,
180,0,4,-4,0.94,,,,,0,0,0,0,0,45,45,50,,,,,,,,,,,,,,,,,,,,,,,391.39086779998615,None,391.39086779998615,None,390.8905972999055,None,j,0.47283780004363507,391.39086779998615,None,,,,,,,,,,,,,t,001,2021_Jul_13_1502,toilet,2021.1.3,99.86986952249822,
0,0,-4,4,1.03,,,,,0,0,0,0,0,46,46,4,,,,,,,,,,,,,,,,,,,,,,,392.8718703999184,None,392.8718703999184,None,392.37152199994307,None,j,0.9439103999175131,392.8718703999184,None,,,,,,,,,,,,,t,001,2021_Jul_13_1502,toilet,2021.1.3,99.86986952249822,
0,0,-4,4,1.15,,,,,0,0,0,0,0,47,47,6,,,,,,,,,,,,,,,,,,,,,,,394.82319089991506,None,394.82319089991506,None,394.32284909999,None,j,0.4644301999360323,394.82319089991506,None,,,,,,,,,,,,,t,001,2021_Jul_13_1502,toilet,2021.1.3,99.86986952249822,
180,180,-4,4,1.0,,,,,0,0,0,0,0,48,48,31,,,,,,,,,,,,,,,,,,,,,,,396.2942066999385,None,396.2942066999385,None,395.7938486998901,None,f,1.345615900005214,396.2942066999385,None,,,,,,,,,,,,,t,001,2021_Jul_13_1502,toilet,2021.1.3,99.86986952249822,
180,0,-4,4,1.15,,,,,0,0,0,0,0,49,49,48,,,,,,,,,,,,,,,,,,,,,,,398.6557876999723,None,398.6557876999723,None,398.15554199996404,None,j,0.455822000047192,398.6557876999723,None,,,,,,,,,,,,,t,001,2021_Jul_13_1502,toilet,2021.1.3,99.86986952249822,
180,180,-4,4,1.03,,,,,0,0,0,0,0,50,50,32,,,,,,,,,,,,,,,,,,,,,,,400.1167740999954,None,400.1167740999954,None,399.61643959989306,None,j,0.5629212000640109,400.1167740999954,None,,,,,,,,,,,,,t,001,2021_Jul_13_1502,toilet,2021.1.3,99.86986952249822,
180,0,-4,4,1.06,,,,,0,0,0,0,0,51,51,47,,,,,,,,,,,,,,,,,,,,,,,401.6878574999282,None,401.6878574999282,None,401.1875037999125,None,j,0.49589150003157556,401.6878574999282,None,,,,,,,,,,,,,t,001,2021_Jul_13_1502,toilet,2021.1.3,99.86986952249822,
0,0,4,-4,1.06,,,,,0,0,0,0,0,52,52,12,,,,,,,,,,,,,,,,,,,,,,,403.1988678999478,None,403.1988678999478,None,402.6985408999026,None,f,0.5207782998913899,403.1988678999478,None,,,,,,,,,,,,,t,001,2021_Jul_13_1502,toilet,2021.1.3,99.86986952249822,
0,180,4,-4,1.15,,,,,0,0,0,0,0,53,53,27,,,,,,,,,,,,,,,,,,,,,,,404.7299944999395,None,404.7299944999395,None,404.2296391999116,None,f,0.47768449992872775,404.7299944999395,None,,,,,,,,,,,,,t,001,2021_Jul_13_1502,toilet,2021.1.3,99.86986952249822,
180,180,-4,4,1.15,,,,,0,0,0,0,0,54,54,34,,,,,,,,,,,,,,,,,,,,,,,406.22088909999,None,406.22088909999,None,405.72060979995877,None,j,0.3786961999721825,406.22088909999,None,,,,,,,,,,,,,t,001,2021_Jul_13_1502,toilet,2021.1.3,99.86986952249822,
180,180,-4,4,1.06,,,,,0,0,0,0,0,55,55,33,,,,,,,,,,,,,,,,,,,,,,,407.60186199995223,None,407.60186199995223,None,407.101510199951,None,j,0.3579053001012653,407.60186199995223,None,,,,,,,,,,,,,t,001,2021_Jul_13_1502,toilet,2021.1.3,99.86986952249822,
180,180,4,-4,0.97,,,,,0,0,0,0,1,0,56,37,,,,,,,,,,,,,,,,,,,,,,,408.96276909997687,None,408.96276909997687,None,408.4624466999667,None,j,0.4373711000662297,408.96276909997687,None,,,,,,,,,,,,,t,001,2021_Jul_13_1502,toilet,2021.1.3,99.86986952249822,
0,180,4,-4,0.97,,,,,0,0,0,0,1,1,57,23,,,,,,,,,,,,,,,,,,,,,,,410.4237631999422,None,410.4237631999422,None,409.92342749994714,None,j,1.2799038999946788,410.4237631999422,None,,,,,,,,,,,,,t,001,2021_Jul_13_1502,toilet,2021.1.3,99.86986952249822,
0,180,4,-4,1.0,,,,,0,0,0,0,1,2,58,24,,,,,,,,,,,,,,,,,,,,,,,412.7154043999035,None,412.7154043999035,None,412.214975199895,None,f,0.5561859000008553,412.7154043999035,None,,,,,,,,,,,,,t,001,2021_Jul_13_1502,toilet,2021.1.3,99.86986952249822,
0,0,-4,4,1.15,,,,,0,0,0,0,1,3,59,6,,,,,,,,,,,,,,,,,,,,,,,414.2763757999055,None,414.2763757999055,None,413.77603519998956,None,j,0.4352548000169918,414.2763757999055,None,,,,,,,,,,,,,t,001,2021_Jul_13_1502,toilet,2021.1.3,99.86986952249822,
180,0,-4,4,1.06,,,,,0,0,0,0,1,4,60,47,,,,,,,,,,,,,,,,,,,,,,,415.717354399967,None,415.717354399967,None,415.21701449994,None,j,0.4184049000032246,415.717354399967,None,,,,,,,,,,,,,t,001,2021_Jul_13_1502,toilet,2021.1.3,99.86986952249822,
0,180,4,-4,1.06,,,,,0,0,0,0,1,5,61,26,,,,,,,,,,,,,,,,,,,,,,,417.1483275999781,None,417.1483275999781,None,416.64798169990536,None,f,0.5555513000581414,417.1483275999781,None,,,,,,,,,,,,,t,001,2021_Jul_13_1502,toilet,2021.1.3,99.86986952249822,
180,180,-4,4,1.0,,,,,0,0,0,0,1,6,62,31,,,,,,,,,,,,,,,,,,,,,,,418.71947769995313,None,418.71947769995313,None,418.2190477999393,None,j,0.5042896999511868,418.71947769995313,None,,,,,,,,,,,,,t,001,2021_Jul_13_1502,toilet,2021.1.3,99.86986952249822,
180,0,4,-4,1.03,,,,,0,0,0,0,1,7,63,53,,,,,,,,,,,,,,,,,,,,,,,420.2404966999311,None,420.2404966999311,None,419.7401722999057,None,f,1.0150996999582276,420.2404966999311,None,,,,,,,,,,,,,t,001,2021_Jul_13_1502,toilet,2021.1.3,99.86986952249822,
180,0,4,-4,0.85,,,,,0,0,0,0,1,8,64,49,,,,,,,,,,,,,,,,,,,,,,,422.26178919989616,None,422.26178919989616,None,421.7614488999825,None,j,0.6258338999468833,422.26178919989616,None,,,,,,,,,,,,,t,001,2021_Jul_13_1502,toilet,2021.1.3,99.86986952249822,
0,180,-4,4,1.06,,,,,0,0,0,0,1,9,65,19,,,,,,,,,,,,,,,,,,,,,,,423.8928957999451,None,423.8928957999451,None,423.39255179988686,None,j,1.7627869999269024,423.8928957999451,None,,,,,,,,,,,,,t,001,2021_Jul_13_1502,toilet,2021.1.3,99.86986952249822,
180,0,4,-4,1.06,,,,,0,0,0,0,1,10,66,54,,,,,,,,,,,,,,,,,,,,,,,426.6548450998962,None,426.6548450998962,None,426.1544259999646,None,f,0.6169837000779808,426.6548450998962,None,,,,,,,,,,,,,t,001,2021_Jul_13_1502,toilet,2021.1.3,99.86986952249822,
180,180,4,-4,0.94,,,,,0,0,0,0,1,11,67,36,,,,,,,,,,,,,,,,,,,,,,,428.28587609995157,None,428.28587609995157,None,427.78561399993487,None,j,0.47381130000576377,428.28587609995157,None,,,,,,,,,,,,,t,001,2021_Jul_13_1502,toilet,2021.1.3,99.86986952249822,
180,0,4,-4,1.0,,,,,0,0,0,0,1,12,68,52,,,,,,,,,,,,,,,,,,,,,,,429.7668791998876,None,429.7668791998876,None,429.2665382999694,None,f,1.2490117000415921,429.7668791998876,None,,,,,,,,,,,,,t,001,2021_Jul_13_1502,toilet,2021.1.3,99.86986952249822,
0,180,4,-4,1.15,,,,,0,0,0,0,1,13,69,27,,,,,,,,,,,,,,,,,,,,,,,432.0284093999071,None,432.0284093999071,None,431.5280722999014,None,f,0.5233516999287531,432.0284093999071,None,,,,,,,,,,,,,t,001,2021_Jul_13_1502,toilet,2021.1.3,99.86986952249822,
0,0,-4,4,0.85,,,,,0,0,0,0,1,14,70,0,,,,,,,,,,,,,,,,,,,,,,,433.56946299993433,None,433.56946299993433,None,433.0691947999876,None,f,0.5822639999678358,433.56946299993433,None,,,,,,,,,,,,,t,001,2021_Jul_13_1502,toilet,2021.1.3,99.86986952249822,
180,180,-4,4,0.97,,,,,0,0,0,0,1,15,71,30,,,,,,,,,,,,,,,,,,,,,,,435.170573099982,None,435.170573099982,None,434.67019779991824,None,j,0.5490225999383256,435.170573099982,None,,,,,,,,,,,,,t,001,2021_Jul_13_1502,toilet,2021.1.3,99.86986952249822,
180,180,-4,4,0.85,,,,,0,0,0,0,1,16,72,28,,,,,,,,,,,,,,,,,,,,,,,436.7215900999727,None,436.7215900999727,None,436.2212513999548,None,f,0.5660013000015169,436.7215900999727,None,,,,,,,,,,,,,t,001,2021_Jul_13_1502,toilet,2021.1.3,99.86986952249822,
180,0,4,-4,1.15,,,,,0,0,0,0,1,17,73,55,,,,,,,,,,,,,,,,,,,,,,,438.29265629989095,None,438.29265629989095,None,437.79232309991494,None,f,0.6909946999512613,438.29265629989095,None,,,,,,,,,,,,,t,001,2021_Jul_13_1502,toilet,2021.1.3,99.86986952249822,
0,0,-4,4,1.03,,,,,0,0,0,0,1,18,74,4,,,,,,,,,,,,,,,,,,,,,,,439.9938093998935,None,439.9938093998935,None,439.4934730998939,None,f,1.629840899957344,439.9938093998935,None,,,,,,,,,,,,,t,001,2021_Jul_13_1502,toilet,2021.1.3,99.86986952249822,
180,180,4,-4,1.0,,,,,0,0,0,0,1,19,75,38,,,,,,,,,,,,,,,,,,,,,,,442.63563769997563,None,442.63563769997563,None,442.1352617999073,None,f,3.9000837999628857,442.63563769997563,None,,,,,,,,,,,,,t,001,2021_Jul_13_1502,toilet,2021.1.3,99.86986952249822,
0,180,4,-4,0.85,,,,,0,0,0,0,1,20,76,21,,,,,,,,,,,,,,,,,,,,,,,447.5489315999439,None,447.5489315999439,None,447.04860489990097,None,j,0.8269160999916494,447.5489315999439,None,,,,,,,,,,,,,t,001,2021_Jul_13_1502,toilet,2021.1.3,99.86986952249822,
0,0,-4,4,0.94,,,,,0,0,0,0,1,21,77,1,,,,,,,,,,,,,,,,,,,,,,,449.3902694999706,None,449.3902694999706,None,448.8899463999551,None,f,0.5534473999869078,449.3902694999706,None,,,,,,,,,,,,,t,001,2021_Jul_13_1502,toilet,2021.1.3,99.86986952249822,
0,0,-4,4,1.0,,,,,0,0,0,0,1,22,78,3,,,,,,,,,,,,,,,,,,,,,,,450.9512413999764,None,450.9512413999764,None,450.45090209995396,None,j,0.41637069999706,450.9512413999764,None,,,,,,,,,,,,,t,001,2021_Jul_13_1502,toilet,2021.1.3,99.86986952249822,
180,180,-4,4,1.15,,,,,0,0,0,0,1,23,79,34,,,,,,,,,,,,,,,,,,,,,,,452.3721973999636,None,452.3721973999636,None,451.8718592999503,None,j,0.49954350001644343,452.3721973999636,None,,,,,,,,,,,,,t,001,2021_Jul_13_1502,toilet,2021.1.3,99.86986952249822,
180,0,-4,4,1.03,,,,,0,0,0,0,1,24,80,46,,,,,,,,,,,,,,,,,,,,,,,453.88323819998186,None,453.88323819998186,None,453.38287909992505,None,f,5.532355900038965,453.88323819998186,None,,,,,,,,,,,,,t,001,2021_Jul_13_1502,toilet,2021.1.3,99.86986952249822,
0,180,-4,4,0.94,,,,,0,0,0,0,1,25,81,15,,,,,,,,,,,,,,,,,,,,,,,460.4176560998894,None,460.4176560998894,None,459.9173161999788,None,f,0.5820192999672145,460.4176560998894,None,,,,,,,,,,,,,t,001,2021_Jul_13_1502,toilet,2021.1.3,99.86986952249822,
0,0,-4,4,0.97,,,,,0,0,0,0,1,26,82,2,,,,,,,,,,,,,,,,,,,,,,,462.0187410999788,None,462.0187410999788,None,461.5184046999784,None,f,0.4851051000878215,462.0187410999788,None,,,,,,,,,,,,,t,001,2021_Jul_13_1502,toilet,2021.1.3,99.86986952249822,
180,0,-4,4,0.85,,,,,0,0,0,0,1,27,83,42,,,,,,,,,,,,,,,,,,,,,,,463.51983169990126,None,463.51983169990126,None,463.0194134999765,None,f,0.455976500059478,463.51983169990126,None,,,,,,,,,,,,,t,001,2021_Jul_13_1502,toilet,2021.1.3,99.86986952249822,
0,180,-4,4,1.03,,,,,0,0,0,0,1,28,84,18,,,,,,,,,,,,,,,,,,,,,,,464.990760799963,None,464.990760799963,None,464.490514599951,None,j,0.5368378000566736,464.990760799963,None,,,,,,,,,,,,,t,001,2021_Jul_13_1502,toilet,2021.1.3,99.86986952249822,
180,0,-4,4,1.0,,,,,0,0,0,0,1,29,85,45,,,,,,,,,,,,,,,,,,,,,,,466.53180219989736,None,466.53180219989736,None,466.0314664999023,None,f,0.5638870999682695,466.53180219989736,None,,,,,,,,,,,,,t,001,2021_Jul_13_1502,toilet,2021.1.3,99.86986952249822,
0,180,4,-4,0.94,,,,,0,0,0,0,1,30,86,22,,,,,,,,,,,,,,,,,,,,,,,468.1128726999741,None,468.1128726999741,None,467.6225410999032,None,f,0.8867347000632435,468.1128726999741,None,,,,,,,,,,,,,t,001,2021_Jul_13_1502,toilet,2021.1.3,99.86986952249822,
180,0,4,-4,0.97,,,,,0,0,0,0,1,31,87,51,,,,,,,,,,,,,,,,,,,,,,,470.0041721999878,None,470.0041721999878,None,469.5038185999729,None,j,0.5795096000656486,470.0041721999878,None,,,,,,,,,,,,,t,001,2021_Jul_13_1502,toilet,2021.1.3,99.86986952249822,
0,180,-4,4,0.97,,,,,0,0,0,0,1,32,88,16,,,,,,,,,,,,,,,,,,,,,,,471.59530999988783,None,471.59530999988783,None,471.0949830999598,None,f,2.908277500071563,471.59530999988783,None,,,,,,,,,,,,,t,001,2021_Jul_13_1502,toilet,2021.1.3,99.86986952249822,
0,0,4,-4,1.15,,,,,0,0,0,0,1,33,89,13,,,,,,,,,,,,,,,,,,,,,,,475.5078856999753,None,475.5078856999753,None,475.0075470999582,None,f,0.4517651000060141,475.5078856999753,None,,,,,,,,,,,,,t,001,2021_Jul_13_1502,toilet,2021.1.3,99.86986952249822,
180,0,-4,4,0.94,,,,,0,0,0,0,1,34,90,43,,,,,,,,,,,,,,,,,,,,,,,476.9588681999594,None,476.9588681999594,None,476.4585529998876,None,f,0.5687256000237539,476.9588681999594,None,,,,,,,,,,,,,t,001,2021_Jul_13_1502,toilet,2021.1.3,99.86986952249822,
0,180,-4,4,1.0,,,,,0,0,0,0,1,35,91,17,,,,,,,,,,,,,,,,,,,,,,,478.5300243999809,None,478.5300243999809,None,478.02967629989143,None,j,0.4856166000245139,478.5300243999809,None,,,,,,,,,,,,,t,001,2021_Jul_13_1502,toilet,2021.1.3,99.86986952249822,
0,0,4,-4,1.0,,,,,0,0,0,0,1,36,92,10,,,,,,,,,,,,,,,,,,,,,,,480.0309589999961,None,480.0309589999961,None,479.53063099994324,None,f,1.5766191000584513,480.0309589999961,None,,,,,,,,,,,,,t,001,2021_Jul_13_1502,toilet,2021.1.3,99.86986952249822,
180,0,4,-4,0.94,,,,,0,0,0,0,1,37,93,50,,,,,,,,,,,,,,,,,,,,,,,482.61270079994574,None,482.61270079994574,None,482.11236619995907,None,j,0.5630322999786586,482.61270079994574,None,,,,,,,,,,,,,t,001,2021_Jul_13_1502,toilet,2021.1.3,99.86986952249822,
180,0,-4,4,1.15,,,,,0,0,0,0,1,38,94,48,,,,,,,,,,,,,,,,,,,,,,,484.1937784999609,None,484.1937784999609,None,483.6934338998981,None,j,0.40583440009504557,484.1937784999609,None,,,,,,,,,,,,,t,001,2021_Jul_13_1502,toilet,2021.1.3,99.86986952249822,
0,0,4,-4,1.06,,,,,0,0,0,0,1,39,95,12,,,,,,,,,,,,,,,,,,,,,,,485.60481219994836,None,485.60481219994836,None,485.1043951999163,None,f,0.4987622000044212,485.60481219994836,None,,,,,,,,,,,,,t,001,2021_Jul_13_1502,toilet,2021.1.3,99.86986952249822,
0,0,4,-4,0.97,,,,,0,0,0,0,1,40,96,9,,,,,,,,,,,,,,,,,,,,,,,487.1057488999795,None,487.1057488999795,None,486.6054868999636,None,j,0.5179256000556052,487.1057488999795,None,,,,,,,,,,,,,t,001,2021_Jul_13_1502,toilet,2021.1.3,99.86986952249822,
180,0,-4,4,0.97,,,,,0,0,0,0,1,41,97,44,,,,,,,,,,,,,,,,,,,,,,,488.62678349995986,None,488.62678349995986,None,488.12644099991303,None,f,0.37281080009415746,488.62678349995986,None,,,,,,,,,,,,,t,001,2021_Jul_13_1502,toilet,2021.1.3,99.86986952249822,
180,180,-4,4,1.06,,,,,0,0,0,0,1,42,98,33,,,,,,,,,,,,,,,,,,,,,,,490.01772359991446,None,490.01772359991446,None,489.51738259999547,None,f,0.9659349999856204,490.01772359991446,None,,,,,,,,,,,,,t,001,2021_Jul_13_1502,toilet,2021.1.3,99.86986952249822,
180,180,4,-4,0.85,,,,,0,0,0,0,1,43,99,35,,,,,,,,,,,,,,,,,,,,,,,491.98914349998813,None,491.98914349998813,None,491.48872089991346,None,j,0.45049529999960214,491.98914349998813,None,,,,,,,,,,,,,t,001,2021_Jul_13_1502,toilet,2021.1.3,99.86986952249822,
180,180,4,-4,1.03,,,,,0,0,0,0,1,44,100,39,,,,,,,,,,,,,,,,,,,,,,,493.4400449999375,None,493.4400449999375,None,492.93978699995205,None,f,0.48760170000605285,493.4400449999375,None,,,,,,,,,,,,,t,001,2021_Jul_13_1502,toilet,2021.1.3,99.86986952249822,
180,180,4,-4,1.15,,,,,0,0,0,0,1,45,101,41,,,,,,,,,,,,,,,,,,,,,,,494.94106099999044,None,494.94106099999044,None,494.440719599952,None,f,0.506612200057134,494.94106099999044,None,,,,,,,,,,,,,t,001,2021_Jul_13_1502,toilet,2021.1.3,99.86986952249822,
0,0,4,-4,0.85,,,,,0,0,0,0,1,46,102,7,,,,,,,,,,,,,,,,,,,,,,,496.45208579988685,None,496.45208579988685,None,495.95175279991236,None,j,0.38750850001815706,496.45208579988685,None,,,,,,,,,,,,,t,001,2021_Jul_13_1502,toilet,2021.1.3,99.86986952249822,
180,180,-4,4,1.03,,,,,0,0,0,0,1,47,103,32,,,,,,,,,,,,,,,,,,,,,,,497.84302749997005,None,497.84302749997005,None,497.34267739998177,None,j,1.3486433000070974,497.84302749997005,None,,,,,,,,,,,,,t,001,2021_Jul_13_1502,toilet,2021.1.3,99.86986952249822,
0,0,4,-4,1.03,,,,,0,0,0,0,1,48,104,11,,,,,,,,,,,,,,,,,,,,,,,500.20463119994383,None,500.20463119994383,None,499.7042914999183,None,f,0.42709419992752373,500.20463119994383,None,,,,,,,,,,,,,t,001,2021_Jul_13_1502,toilet,2021.1.3,99.86986952249822,
180,180,-4,4,0.94,,,,,0,0,0,0,1,49,105,29,,,,,,,,,,,,,,,,,,,,,,,501.6456248998875,None,501.6456248998875,None,501.1452732998878,None,f,0.5379434999777004,501.6456248998875,None,,,,,,,,,,,,,t,001,2021_Jul_13_1502,toilet,2021.1.3,99.86986952249822,
0,180,4,-4,1.03,,,,,0,0,0,0,1,50,106,25,,,,,,,,,,,,,,,,,,,,,,,503.18665069993585,None,503.18665069993585,None,502.68630889989436,None,f,0.6609355999389663,503.18665069993585,None,,,,,,,,,,,,,t,001,2021_Jul_13_1502,toilet,2021.1.3,99.86986952249822,
0,180,-4,4,1.15,,,,,0,0,0,0,1,51,107,20,,,,,,,,,,,,,,,,,,,,,,,504.84777769993525,None,504.84777769993525,None,504.34743689990137,None,j,0.4078434999100864,504.84777769993525,None,,,,,,,,,,,,,t,001,2021_Jul_13_1502,toilet,2021.1.3,99.86986952249822,
0,0,-4,4,1.06,,,,,0,0,0,0,1,52,108,5,,,,,,,,,,,,,,,,,,,,,,,506.2587332999101,None,506.2587332999101,None,505.75840019993484,None,f,0.7569606000324711,506.2587332999101,None,,,,,,,,,,,,,t,001,2021_Jul_13_1502,toilet,2021.1.3,99.86986952249822,
0,180,-4,4,0.85,,,,,0,0,0,0,1,53,109,14,,,,,,,,,,,,,,,,,,,,,,,508.03000879997853,None,508.03000879997853,None,507.5296743999934,None,f,0.5537990999873728,508.03000879997853,None,,,,,,,,,,,,,t,001,2021_Jul_13_1502,toilet,2021.1.3,99.86986952249822,
0,0,4,-4,0.94,,,,,0,0,0,0,1,54,110,8,,,,,,,,,,,,,,,,,,,,,,,509.60099929990247,None,509.60099929990247,None,509.10065579996444,None,j,0.48658369993790984,509.60099929990247,None,,,,,,,,,,,,,t,001,2021_Jul_13_1502,toilet,2021.1.3,99.86986952249822,
180,180,4,-4,1.06,,,,,0,0,0,0,1,55,111,40,,,,,,,,,,,,,,,,,,,,,,,511.0920099999057,None,511.0920099999057,None,510.5916718998924,None,f,0.6916657999390736,511.0920099999057,None,,,,,,,,,,,,,t,001,2021_Jul_13_1502,toilet,2021.1.3,99.86986952249822,
,,,,,,,,,0,0,0,0,,,,,,,,,,,,,,,,,,,,,,,,,,,,,,,,,,,,,511.8024931999389,None,space,19.149188100011088,511.8024931999389,None,,,,,,,t,001,2021_Jul_13_1502,toilet,2021.1.3,99.86986952249822,
0,0,4,-4,0.85,,,,,1,0,1,0,0,0,0,7,,,,,,,,,,,,,,,,,530.9755272999173,None,space,1.76803890010342,530.9755272999173,None,533.7573736999184,None,533.7573736999184,None,533.2570348998997,None,j,0.5864562999922782,533.7573736999184,None,,,,,,,,,,,,,t,001,2021_Jul_13_1502,toilet,2021.1.3,99.86986952249822,
180,180,4,-4,1.15,,,,,1,0,1,0,0,1,1,41,,,,,,,,,,,,,,,,,,,,,,,535.3584630999248,None,535.3584630999248,None,534.8581221998902,None,f,0.5052551999688148,535.3584630999248,None,,,,,,,,,,,,,t,001,2021_Jul_13_1502,toilet,2021.1.3,99.86986952249822,
180,0,4,-4,0.85,,,,,1,0,1,0,0,2,2,49,,,,,,,,,,,,,,,,,,,,,,,536.879561199923,None,536.879561199923,None,536.3791505999397,None,j,0.3922929000109434,536.879561199923,None,,,,,,,,,,,,,t,001,2021_Jul_13_1502,toilet,2021.1.3,99.86986952249822,
180,180,4,-4,1.03,,,,,1,0,1,0,0,3,3,39,,,,,,,,,,,,,,,,,,,,,,,538.2905400999589,None,538.2905400999589,None,537.7901961999014,None,f,0.5810223999433219,538.2905400999589,None,,,,,,,,,,,,,t,001,2021_Jul_13_1502,toilet,2021.1.3,99.86986952249822,
180,0,4,-4,1.0,,,,,1,0,1,0,0,4,4,52,,,,,,,,,,,,,,,,,,,,,,,539.8715191999217,None,539.8715191999217,None,539.371179199894,None,j,0.8080308999633417,539.8715191999217,None,,,,,,,,,,,,,t,001,2021_Jul_13_1502,toilet,2021.1.3,99.86986952249822,
0,0,-4,4,0.97,,,,,1,0,1,0,0,5,5,2,,,,,,,,,,,,,,,,,,,,,,,541.6827501999214,None,541.6827501999214,None,541.1824083999963,None,f,0.6448508999310434,541.6827501999214,None,,,,,,,,,,,,,t,001,2021_Jul_13_1502,toilet,2021.1.3,99.86986952249822,
180,0,-4,4,0.94,,,,,1,0,1,0,0,6,6,43,,,,,,,,,,,,,,,,,,,,,,,543.3338660999434,None,543.3338660999434,None,542.8335279999301,None,j,0.5617723999312147,543.3338660999434,None,,,,,,,,,,,,,t,001,2021_Jul_13_1502,toilet,2021.1.3,99.86986952249822,
0,180,-4,4,1.06,,,,,1,0,1,0,0,7,7,19,,,,,,,,,,,,,,,,,,,,,,,544.8950086999685,None,544.8950086999685,None,544.3946642999072,None,j,0.3766368000069633,544.8950086999685,None,,,,,,,,,,,,,t,001,2021_Jul_13_1502,toilet,2021.1.3,99.86986952249822,
180,180,4,-4,0.97,,,,,1,0,1,0,0,8,8,37,,,,,,,,,,,,,,,,,,,,,,,546.2858762999531,None,546.2858762999531,None,545.7855351999169,None,f,0.825757100014016,546.2858762999531,None,,,,,,,,,,,,,t,001,2021_Jul_13_1502,toilet,2021.1.3,99.86986952249822,
180,0,4,-4,0.94,,,,,1,0,1,0,0,9,9,50,,,,,,,,,,,,,,,,,,,,,,,548.1171191999456,None,548.1171191999456,None,547.6167726999847,None,j,0.5624949999619275,548.1171191999456,None,,,,,,,,,,,,,t,001,2021_Jul_13_1502,toilet,2021.1.3,99.86986952249822,
0,0,-4,4,1.06,,,,,1,0,1,0,0,10,10,5,,,,,,,,,,,,,,,,,,,,,,,549.6981768999249,None,549.6981768999249,None,549.1978428999428,None,f,0.4376936999615282,549.6981768999249,None,,,,,,,,,,,,,t,001,2021_Jul_13_1502,toilet,2021.1.3,99.86986952249822,
180,180,-4,4,0.94,,,,,1,0,1,0,0,11,11,29,,,,,,,,,,,,,,,,,,,,,,,551.1491656999569,None,551.1491656999569,None,550.648828299949,None,f,0.5384853000286967,551.1491656999569,None,,,,,,,,,,,,,t,001,2021_Jul_13_1502,toilet,2021.1.3,99.86986952249822,
180,180,4,-4,1.06,,,,,1,0,1,0,0,12,12,40,,,,,,,,,,,,,,,,,,,,,,,552.7003048999468,None,552.7003048999468,None,552.1999504999258,None,f,1.4992271999362856,552.7003048999468,None,,,,,,,,,,,,,t,001,2021_Jul_13_1502,toilet,2021.1.3,99.86986952249822,
0,0,4,-4,1.15,,,,,1,0,1,0,0,13,13,13,,,,,,,,,,,,,,,,,,,,,,,555.2019131999696,None,555.2019131999696,None,554.7015702999197,None,f,0.42173340008594096,555.2019131999696,None,,,,,,,,,,,,,t,001,2021_Jul_13_1502,toilet,2021.1.3,99.86986952249822,
0,180,4,-4,0.94,,,,,1,0,1,0,0,14,14,22,,,,,,,,,,,,,,,,,,,,,,,556.632880399935,None,556.632880399935,None,556.1325435999315,None,j,0.47875799995381385,556.632880399935,None,,,,,,,,,,,,,t,001,2021_Jul_13_1502,toilet,2021.1.3,99.86986952249822,
180,0,4,-4,1.03,,,,,1,0,1,0,0,15,15,53,,,,,,,,,,,,,,,,,,,,,,,558.1239239999559,None,558.1239239999559,None,557.6235502999043,None,f,0.4757894000504166,558.1239239999559,None,,,,,,,,,,,,,t,001,2021_Jul_13_1502,toilet,2021.1.3,99.86986952249822,
0,0,-4,4,0.94,,,,,1,0,1,0,0,16,16,1,,,,,,,,,,,,,,,,,,,,,,,559.614998199977,None,559.614998199977,None,559.1145697999746,None,f,0.4727703999960795,559.614998199977,None,,,,,,,,,,,,,t,001,2021_Jul_13_1502,toilet,2021.1.3,99.86986952249822,
0,180,-4,4,1.15,,,,,1,0,1,0,0,17,17,20,,,,,,,,,,,,,,,,,,,,,,,561.1059126999462,None,561.1059126999462,None,560.6055678999983,None,j,0.38978989992756397,561.1059126999462,None,,,,,,,,,,,,,t,001,2021_Jul_13_1502,toilet,2021.1.3,99.86986952249822,
180,180,-4,4,0.85,,,,,1,0,1,0,0,18,18,28,,,,,,,,,,,,,,,,,,,,,,,562.4968507000012,None,562.4968507000012,None,561.996554399957,None,f,0.39068529999349266,562.4968507000012,None,,,,,,,,,,,,,t,001,2021_Jul_13_1502,toilet,2021.1.3,99.86986952249822,
180,0,-4,4,1.15,,,,,1,0,1,0,0,19,19,48,,,,,,,,,,,,,,,,,,,,,,,563.8878007999156,None,563.8878007999156,None,563.3874611998908,None,j,0.4558563999598846,563.8878007999156,None,,,,,,,,,,,,,t,001,2021_Jul_13_1502,toilet,2021.1.3,99.86986952249822,
0,0,4,-4,1.03,,,,,1,0,1,0,0,20,20,11,,,,,,,,,,,,,,,,,,,,,,,565.3487890999531,None,565.3487890999531,None,564.8484532999573,None,f,0.5308333000866696,565.3487890999531,None,,,,,,,,,,,,,t,001,2021_Jul_13_1502,toilet,2021.1.3,99.86986952249822,
180,180,-4,4,1.15,,,,,1,0,1,0,0,21,21,34,,,,,,,,,,,,,,,,,,,,,,,566.8799150999403,None,566.8799150999403,None,566.3795637999428,None,j,0.40770530002191663,566.8799150999403,None,,,,,,,,,,,,,t,001,2021_Jul_13_1502,toilet,2021.1.3,99.86986952249822,
180,180,-4,4,1.03,,,,,1,0,1,0,0,22,22,32,,,,,,,,,,,,,,,,,,,,,,,568.3007900998928,None,568.3007900998928,None,567.8005415999796,None,f,0.41087809996679425,568.3007900998928,None,,,,,,,,,,,,,t,001,2021_Jul_13_1502,toilet,2021.1.3,99.86986952249822,
0,180,4,-4,1.0,,,,,1,0,1,0,0,23,23,24,,,,,,,,,,,,,,,,,,,,,,,569.7117499999003,None,569.7117499999003,None,569.211409999989,None,j,0.43980259995441884,569.7117499999003,None,,,,,,,,,,,,,t,001,2021_Jul_13_1502,toilet,2021.1.3,99.86986952249822,
180,180,4,-4,0.94,,,,,1,0,1,0,0,24,24,36,,,,,,,,,,,,,,,,,,,,,,,571.1527302999748,None,571.1527302999748,None,570.6523910999531,None,j,0.4551217000698671,571.1527302999748,None,,,,,,,,,,,,,t,001,2021_Jul_13_1502,toilet,2021.1.3,99.86986952249822,
0,180,-4,4,0.94,,,,,1,0,1,0,0,25,25,15,,,,,,,,,,,,,,,,,,,,,,,572.6237281999784,None,572.6237281999784,None,572.123380899895,None,f,0.4719277999829501,572.6237281999784,None,,,,,,,,,,,,,t,001,2021_Jul_13_1502,toilet,2021.1.3,99.86986952249822,
180,0,-4,4,0.85,,,,,1,0,1,0,0,26,26,42,,,,,,,,,,,,,,,,,,,,,,,574.1148016999941,None,574.1148016999941,None,573.6144835999003,None,f,0.5008745000232011,574.1148016999941,None,,,,,,,,,,,,,t,001,2021_Jul_13_1502,toilet,2021.1.3,99.86986952249822,
180,0,4,-4,1.06,,,,,1,0,1,0,0,27,27,54,,,,,,,,,,,,,,,,,,,,,,,575.6257555999327,None,575.6257555999327,None,575.1254995999625,None,f,0.5259250999661162,575.6257555999327,None,,,,,,,,,,,,,t,001,2021_Jul_13_1502,toilet,2021.1.3,99.86986952249822,
0,0,-4,4,0.85,,,,,1,0,1,0,0,28,28,0,,,,,,,,,,,,,,,,,,,,,,,577.1568002999993,None,577.1568002999993,None,576.6564510999015,None,f,0.4029525000369176,577.1568002999993,None,,,,,,,,,,,,,t,001,2021_Jul_13_1502,toilet,2021.1.3,99.86986952249822,
0,0,4,-4,0.94,,,,,1,0,1,0,0,29,29,8,,,,,,,,,,,,,,,,,,,,,,,578.5677488999208,None,578.5677488999208,None,578.067404899979,None,j,0.4799440000206232,578.5677488999208,None,,,,,,,,,,,,,t,001,2021_Jul_13_1502,toilet,2021.1.3,99.86986952249822,
180,180,-4,4,0.97,,,,,1,0,1,0,0,30,30,30,,,,,,,,,,,,,,,,,,,,,,,580.058756299899,None,580.058756299899,None,579.5584186998894,None,f,0.4771826999494806,580.058756299899,None,,,,,,,,,,,,,t,001,2021_Jul_13_1502,toilet,2021.1.3,99.86986952249822,
180,0,-4,4,0.97,,,,,1,0,1,0,0,31,31,44,,,,,,,,,,,,,,,,,,,,,,,581.5497682999121,None,581.5497682999121,None,581.0495249999221,None,f,1.049891300033778,581.5497682999121,None,,,,,,,,,,,,,t,001,2021_Jul_13_1502,toilet,2021.1.3,99.86986952249822,
180,180,4,-4,1.0,,,,,1,0,1,0,0,32,32,38,,,,,,,,,,,,,,,,,,,,,,,583.601154099917,None,583.601154099917,None,583.1008205999387,None,j,1.158571399981156,583.601154099917,None,,,,,,,,,,,,,t,001,2021_Jul_13_1502,toilet,2021.1.3,99.86986952249822,
0,180,-4,4,1.0,,,,,1,0,1,0,0,33,33,17,,,,,,,,,,,,,,,,,,,,,,,585.7626260999823,None,585.7626260999823,None,585.2623005999485,None,f,0.9489670000039041,585.7626260999823,None,,,,,,,,,,,,,t,001,2021_Jul_13_1502,toilet,2021.1.3,99.86986952249822,
180,0,-4,4,1.06,,,,,1,0,1,0,0,34,34,47,,,,,,,,,,,,,,,,,,,,,,,587.7239558999427,None,587.7239558999427,None,587.2236177999293,None,j,0.6197059999685735,587.7239558999427,None,,,,,,,,,,,,,t,001,2021_Jul_13_1502,toilet,2021.1.3,99.86986952249822,
0,0,-4,4,1.15,,,,,1,0,1,0,0,35,35,6,,,,,,,,,,,,,,,,,,,,,,,589.3450971998973,None,589.3450971998973,None,588.8447932999115,None,j,0.5346834999509156,589.3450971998973,None,,,,,,,,,,,,,t,001,2021_Jul_13_1502,toilet,2021.1.3,99.86986952249822,
180,180,-4,4,1.0,,,,,1,0,1,0,0,36,36,31,,,,,,,,,,,,,,,,,,,,,,,590.8961068999488,None,590.8961068999488,None,590.3957711999537,None,f,0.7916212999261916,590.8961068999488,None,,,,,,,,,,,,,t,001,2021_Jul_13_1502,toilet,2021.1.3,99.86986952249822,
0,0,4,-4,1.06,,,,,1,0,1,0,0,37,37,12,,,,,,,,,,,,,,,,,,,,,,,592.687316399999,None,592.687316399999,None,592.1869851999218,None,f,0.5045029000611976,592.687316399999,None,,,,,,,,,,,,,t,001,2021_Jul_13_1502,toilet,2021.1.3,99.86986952249822,
0,180,-4,4,0.85,,,,,1,0,1,0,0,38,38,14,,,,,,,,,,,,,,,,,,,,,,,594.2183607999468,None,594.2183607999468,None,593.7180160999997,None,f,0.5573105999501422,594.2183607999468,None,,,,,,,,,,,,,t,001,2021_Jul_13_1502,toilet,2021.1.3,99.86986952249822,
180,0,4,-4,0.97,,,,,1,0,1,0,0,39,39,51,,,,,,,,,,,,,,,,,,,,,,,595.7794970999239,None,595.7794970999239,None,595.2790760999778,None,j,0.5643590999534354,595.7794970999239,None,,,,,,,,,,,,,t,001,2021_Jul_13_1502,toilet,2021.1.3,99.86986952249822,
180,0,4,-4,1.15,,,,,1,0,1,0,0,40,40,55,,,,,,,,,,,,,,,,,,,,,,,597.3604843999492,None,597.3604843999492,None,596.8602356999181,None,f,0.5032552999909967,597.3604843999492,None,,,,,,,,,,,,,t,001,2021_Jul_13_1502,toilet,2021.1.3,99.86986952249822,
0,0,4,-4,0.97,,,,,1,0,1,0,0,41,41,9,,,,,,,,,,,,,,,,,,,,,,,598.8715124999871,None,598.8715124999871,None,598.3711694999365,None,j,0.4321936999913305,598.8715124999871,None,,,,,,,,,,,,,t,001,2021_Jul_13_1502,toilet,2021.1.3,99.86986952249822,
180,0,-4,4,1.0,,,,,1,0,1,0,0,42,42,45,,,,,,,,,,,,,,,,,,,,,,,600.3124945999589,None,600.3124945999589,None,599.8121499998961,None,f,0.7670749000972137,600.3124945999589,None,,,,,,,,,,,,,t,001,2021_Jul_13_1502,toilet,2021.1.3,99.86986952249822,
0,180,-4,4,1.03,,,,,1,0,1,0,0,43,43,18,,,,,,,,,,,,,,,,,,,,,,,602.0836910998914,None,602.0836910998914,None,601.5833377999952,None,j,0.5638761000009254,602.0836910998914,None,,,,,,,,,,,,,t,001,2021_Jul_13_1502,toilet,2021.1.3,99.86986952249822,
0,0,4,-4,1.0,,,,,1,0,1,0,0,44,44,10,,,,,,,,,,,,,,,,,,,,,,,603.6548346999334,None,603.6548346999334,None,603.154510299908,None,j,1.072738799965009,603.6548346999334,None,,,,,,,,,,,,,t,001,2021_Jul_13_1502,toilet,2021.1.3,99.86986952249822,
0,180,-4,4,0.97,,,,,1,0,1,0,0,45,45,16,,,,,,,,,,,,,,,,,,,,,,,605.7461832999252,None,605.7461832999252,None,605.2458376999712,None,f,0.5813785999780521,605.7461832999252,None,,,,,,,,,,,,,t,001,2021_Jul_13_1502,toilet,2021.1.3,99.86986952249822,
180,0,-4,4,1.03,,,,,1,0,1,0,0,46,46,46,,,,,,,,,,,,,,,,,,,,,,,607.3272480999585,None,607.3272480999585,None,606.8269053999102,None,j,0.4723546000896022,607.3272480999585,None,,,,,,,,,,,,,t,001,2021_Jul_13_1502,toilet,2021.1.3,99.86986952249822,
0,180,4,-4,0.97,,,,,1,0,1,0,0,47,47,23,,,,,,,,,,,,,,,,,,,,,,,608.8182577999542,None,608.8182577999542,None,608.317931599915,None,f,0.4534286000998691,608.8182577999542,None,,,,,,,,,,,,,t,001,2021_Jul_13_1502,toilet,2021.1.3,99.86986952249822,
0,180,4,-4,1.15,,,,,1,0,1,0,0,48,48,27,,,,,,,,,,,,,,,,,,,,,,,610.2892529999372,None,610.2892529999372,None,609.7889184999513,None,f,0.5183532999362797,610.2892529999372,None,,,,,,,,,,,,,t,001,2021_Jul_13_1502,toilet,2021.1.3,99.86986952249822,
0,0,-4,4,1.03,,,,,1,0,1,0,0,49,49,4,,,,,,,,,,,,,,,,,,,,,,,611.8203822999494,None,611.8203822999494,None,611.3200378998881,None,j,0.8111450999276713,611.8203822999494,None,,,,,,,,,,,,,t,001,2021_Jul_13_1502,toilet,2021.1.3,99.86986952249822,
180,180,4,-4,0.85,,,,,1,0,1,0,0,50,50,35,,,,,,,,,,,,,,,,,,,,,,,613.6315262999851,None,613.6315262999851,None,613.131193799898,None,j,0.5840989999705926,613.6315262999851,None,,,,,,,,,,,,,t,001,2021_Jul_13_1502,toilet,2021.1.3,99.86986952249822,
0,180,4,-4,1.03,,,,,1,0,1,0,0,51,51,25,,,,,,,,,,,,,,,,,,,,,,,615.2226033998886,None,615.2226033998886,None,614.7222605999559,None,f,0.4652272999519482,615.2226033998886,None,,,,,,,,,,,,,t,001,2021_Jul_13_1502,toilet,2021.1.3,99.86986952249822,
180,180,-4,4,1.06,,,,,1,0,1,0,0,52,52,33,,,,,,,,,,,,,,,,,,,,,,,616.7136118999915,None,616.7136118999915,None,616.2132670999272,None,j,0.4462069000583142,616.7136118999915,None,,,,,,,,,,,,,t,001,2021_Jul_13_1502,toilet,2021.1.3,99.86986952249822,
0,180,4,-4,1.06,,,,,1,0,1,0,0,53,53,26,,,,,,,,,,,,,,,,,,,,,,,618.1846867999993,None,618.1846867999993,None,617.6842668999452,None,f,0.4948868000647053,618.1846867999993,None,,,,,,,,,,,,,t,001,2021_Jul_13_1502,toilet,2021.1.3,99.86986952249822,
0,180,4,-4,0.85,,,,,1,0,1,0,0,54,54,21,,,,,,,,,,,,,,,,,,,,,,,619.6956726999488,None,619.6956726999488,None,619.1953685999615,None,j,0.4078628000570461,619.6956726999488,None,,,,,,,,,,,,,t,001,2021_Jul_13_1502,toilet,2021.1.3,99.86986952249822,
0,0,-4,4,1.0,,,,,1,0,1,0,0,55,55,3,,,,,,,,,,,,,,,,,,,,,,,621.1065863999538,None,621.1065863999538,None,620.6062567998888,None,f,0.4530211000237614,621.1065863999538,None,,,,,,,,,,,,,t,001,2021_Jul_13_1502,toilet,2021.1.3,99.86986952249822,
180,0,-4,4,1.15,,,,,1,0,1,0,1,0,56,48,,,,,,,,,,,,,,,,,,,,,,,622.5675769998925,None,622.5675769998925,None,622.0672421999043,None,j,0.38419689994771034,622.5675769998925,None,,,,,,,,,,,,,t,001,2021_Jul_13_1502,toilet,2021.1.3,99.86986952249822,
0,180,4,-4,0.94,,,,,1,0,1,0,1,1,57,22,,,,,,,,,,,,,,,,,,,,,,,623.9685259999242,None,623.9685259999242,None,623.4681887999177,None,j,0.47115649993065745,623.9685259999242,None,,,,,,,,,,,,,t,001,2021_Jul_13_1502,toilet,2021.1.3,99.86986952249822,
0,0,4,-4,0.97,,,,,1,0,1,0,1,2,58,9,,,,,,,,,,,,,,,,,,,,,,,625.4395537999226,None,625.4395537999226,None,624.9392784999218,None,f,2.0880378000438213,625.4395537999226,None,,,,,,,,,,,,,t,001,2021_Jul_13_1502,toilet,2021.1.3,99.86986952249822,
180,180,-4,4,1.15,,,,,1,0,1,0,1,3,59,34,,,,,,,,,,,,,,,,,,,,,,,628.5316180998925,None,628.5316180998925,None,628.0312864999287,None,j,0.40390739997383207,628.5316180998925,None,,,,,,,,,,,,,t,001,2021_Jul_13_1502,toilet,2021.1.3,99.86986952249822,
180,180,4,-4,1.15,,,,,1,0,1,0,1,4,60,41,,,,,,,,,,,,,,,,,,,,,,,629.9425770998932,None,629.9425770998932,None,629.4422432999127,None,f,0.41725930001121014,629.9425770998932,None,,,,,,,,,,,,,t,001,2021_Jul_13_1502,toilet,2021.1.3,99.86986952249822,
180,180,-4,4,1.0,,,,,1,0,1,0,1,5,61,31,,,,,,,,,,,,,,,,,,,,,,,631.3735546999378,None,631.3735546999378,None,630.8732077999739,None,j,0.6662241999292746,631.3735546999378,None,,,,,,,,,,,,,t,001,2021_Jul_13_1502,toilet,2021.1.3,99.86986952249822,
0,180,-4,4,0.97,,,,,1,0,1,0,1,6,62,16,,,,,,,,,,,,,,,,,,,,,,,633.0546882998897,None,633.0546882998897,None,632.554427199997,None,f,1.1930480999872088,633.0546882998897,None,,,,,,,,,,,,,t,001,2021_Jul_13_1502,toilet,2021.1.3,99.86986952249822,
180,180,4,-4,1.0,,,,,1,0,1,0,1,7,63,38,,,,,,,,,,,,,,,,,,,,,,,635.2661898999941,None,635.2661898999941,None,634.7658448999282,None,j,0.5814922000281513,635.2661898999941,None,,,,,,,,,,,,,t,001,2021_Jul_13_1502,toilet,2021.1.3,99.86986952249822,
0,180,-4,4,1.0,,,,,1,0,1,0,1,8,64,17,,,,,,,,,,,,,,,,,,,,,,,636.8472607999574,None,636.8472607999574,None,636.3469222999411,None,f,1.736399200046435,636.8472607999574,None,,,,,,,,,,,,,t,001,2021_Jul_13_1502,toilet,2021.1.3,99.86986952249822,
180,180,-4,4,0.85,,,,,1,0,1,0,1,9,65,28,,,,,,,,,,,,,,,,,,,,,,,639.5991309999954,None,639.5991309999954,None,639.0987839999143,None,f,0.5365978999761865,639.5991309999954,None,,,,,,,,,,,,,t,001,2021_Jul_13_1502,toilet,2021.1.3,99.86986952249822,
180,0,4,-4,0.85,,,,,1,0,1,0,1,10,66,49,,,,,,,,,,,,,,,,,,,,,,,641.1502700999845,None,641.1502700999845,None,640.6498385999585,None,j,0.4733875000383705,641.1502700999845,None,,,,,,,,,,,,,t,001,2021_Jul_13_1502,toilet,2021.1.3,99.86986952249822,
0,0,-4,4,0.97,,,,,1,0,1,0,1,11,67,2,,,,,,,,,,,,,,,,,,,,,,,642.6411856999621,None,642.6411856999621,None,642.1408460999373,None,f,0.5343454000540078,642.6411856999621,None,,,,,,,,,,,,,t,001,2021_Jul_13_1502,toilet,2021.1.3,99.86986952249822,
180,0,4,-4,1.06,,,,,1,0,1,0,1,12,68,54,,,,,,,,,,,,,,,,,,,,,,,644.1822269998956,None,644.1822269998956,None,643.6818937999196,None,f,1.1374384999508038,644.1822269998956,None,,,,,,,,,,,,,t,001,2021_Jul_13_1502,toilet,2021.1.3,99.86986952249822,
0,0,-4,4,1.0,,,,,1,0,1,0,1,13,69,3,,,,,,,,,,,,,,,,,,,,,,,646.333693399909,None,646.333693399909,None,645.8333437999245,None,f,0.5378954999614507,646.333693399909,None,,,,,,,,,,,,,t,001,2021_Jul_13_1502,toilet,2021.1.3,99.86986952249822,
0,0,4,-4,0.85,,,,,1,0,1,0,1,14,70,7,,,,,,,,,,,,,,,,,,,,,,,647.8847916999366,None,647.8847916999366,None,647.3843972999603,None,j,0.6028032000176609,647.8847916999366,None,,,,,,,,,,,,,t,001,2021_Jul_13_1502,toilet,2021.1.3,99.86986952249822,
180,0,4,-4,0.97,,,,,1,0,1,0,1,15,71,51,,,,,,,,,,,,,,,,,,,,,,,649.4958279998973,None,649.4958279998973,None,648.9955291999504,None,f,0.7516987000126392,649.4958279998973,None,,,,,,,,,,,,,t,001,2021_Jul_13_1502,toilet,2021.1.3,99.86986952249822,
0,0,-4,4,0.94,,,,,1,0,1,0,1,16,72,1,,,,,,,,,,,,,,,,,,,,,,,651.2470158999786,None,651.2470158999786,None,650.7466812999919,None,f,0.5844813000876456,651.2470158999786,None,,,,,,,,,,,,,t,001,2021_Jul_13_1502,toilet,2021.1.3,99.86986952249822,
0,0,-4,4,1.03,,,,,1,0,1,0,1,17,73,4,,,,,,,,,,,,,,,,,,,,,,,652.8380980999209,None,652.8380980999209,None,652.3377570000011,None,j,0.6095171999186277,652.8380980999209,None,,,,,,,,,,,,,t,001,2021_Jul_13_1502,toilet,2021.1.3,99.86986952249822,
180,180,4,-4,1.03,,,,,1,0,1,0,1,18,74,39,,,,,,,,,,,,,,,,,,,,,,,654.4592285999097,None,654.4592285999097,None,653.9588640999282,None,f,0.7164158999221399,654.4592285999097,None,,,,,,,,,,,,,t,001,2021_Jul_13_1502,toilet,2021.1.3,99.86986952249822,
180,180,-4,4,1.06,,,,,1,0,1,0,1,19,75,33,,,,,,,,,,,,,,,,,,,,,,,656.1904071999015,None,656.1904071999015,None,655.6901091999607,None,j,0.45708999992348254,656.1904071999015,None,,,,,,,,,,,,,t,001,2021_Jul_13_1502,toilet,2021.1.3,99.86986952249822,
0,0,4,-4,0.94,,,,,1,0,1,0,1,20,76,8,,,,,,,,,,,,,,,,,,,,,,,657.65136109991,None,657.65136109991,None,657.1510344999842,None,j,0.5641604999545962,657.65136109991,None,,,,,,,,,,,,,t,001,2021_Jul_13_1502,toilet,2021.1.3,99.86986952249822,
180,0,-4,4,1.06,,,,,1,0,1,0,1,21,77,47,,,,,,,,,,,,,,,,,,,,,,,659.2224239999196,None,659.2224239999196,None,658.7220832000021,None,j,0.6251355999847874,659.2224239999196,None,,,,,,,,,,,,,t,001,2021_Jul_13_1502,toilet,2021.1.3,99.86986952249822,
0,180,4,-4,1.15,,,,,1,0,1,0,1,22,78,27,,,,,,,,,,,,,,,,,,,,,,,660.8635298999725,None,660.8635298999725,None,660.3631949999835,None,f,1.768058600020595,660.8635298999725,None,,,,,,,,,,,,,t,001,2021_Jul_13_1502,toilet,2021.1.3,99.86986952249822,
180,0,-4,4,0.85,,,,,1,0,1,0,1,23,79,42,,,,,,,,,,,,,,,,,,,,,,,663.6454565998865,None,663.6454565998865,None,663.145117099979,None,f,1.0021441999124363,663.6454565998865,None,,,,,,,,,,,,,t,001,2021_Jul_13_1502,toilet,2021.1.3,99.86986952249822,
0,0,-4,4,1.15,,,,,1,0,1,0,1,24,80,6,,,,,,,,,,,,,,,,,,,,,,,665.646774899913,None,665.646774899913,None,665.1464331999887,None,j,0.44079219992272556,665.646774899913,None,,,,,,,,,,,,,t,001,2021_Jul_13_1502,toilet,2021.1.3,99.86986952249822,
180,0,4,-4,0.94,,,,,1,0,1,0,1,25,81,50,,,,,,,,,,,,,,,,,,,,,,,667.0877517999616,None,667.0877517999616,None,666.5874101999216,None,j,0.4717612999957055,667.0877517999616,None,,,,,,,,,,,,,t,001,2021_Jul_13_1502,toilet,2021.1.3,99.86986952249822,
0,180,-4,4,1.06,,,,,1,0,1,0,1,26,82,19,,,,,,,,,,,,,,,,,,,,,,,668.5587486999575,None,668.5587486999575,None,668.0684151999885,None,j,0.5047922000521794,668.5587486999575,None,,,,,,,,,,,,,t,001,2021_Jul_13_1502,toilet,2021.1.3,99.86986952249822,
0,180,4,-4,0.97,,,,,1,0,1,0,1,27,83,23,,,,,,,,,,,,,,,,,,,,,,,670.0698496999685,None,670.0698496999685,None,669.569439599989,None,f,1.1696742000058293,670.0698496999685,None,,,,,,,,,,,,,t,001,2021_Jul_13_1502,toilet,2021.1.3,99.86986952249822,
0,0,4,-4,1.03,,,,,1,0,1,0,1,28,84,11,,,,,,,,,,,,,,,,,,,,,,,672.2412499999627,None,672.2412499999627,None,671.7409113999456,None,j,0.534266100032255,672.2412499999627,None,,,,,,,,,,,,,t,001,2021_Jul_13_1502,toilet,2021.1.3,99.86986952249822,
180,180,-4,4,0.94,,,,,1,0,1,0,1,29,85,29,,,,,,,,,,,,,,,,,,,,,,,673.7822925999062,None,673.7822925999062,None,673.2819508999819,None,j,0.43326670001260936,673.7822925999062,None,,,,,,,,,,,,,t,001,2021_Jul_13_1502,toilet,2021.1.3,99.86986952249822,
180,0,-4,4,0.97,,,,,1,0,1,0,1,30,86,44,,,,,,,,,,,,,,,,,,,,,,,675.2332790999208,None,675.2332790999208,None,674.7329406999052,None,f,1.4142900999868289,675.2332790999208,None,,,,,,,,,,,,,t,001,2021_Jul_13_1502,toilet,2021.1.3,99.86986952249822,
180,0,4,-4,1.15,,,,,1,0,1,0,1,31,87,55,,,,,,,,,,,,,,,,,,,,,,,677.6549971998902,None,677.6549971998902,None,677.1546649999218,None,f,1.2005338000599295,677.6549971998902,None,,,,,,,,,,,,,t,001,2021_Jul_13_1502,toilet,2021.1.3,99.86986952249822,
0,0,4,-4,1.15,,,,,1,0,1,0,1,32,88,13,,,,,,,,,,,,,,,,,,,,,,,679.856410899898,None,679.856410899898,None,679.3561024999944,None,f,0.4871633000439033,679.856410899898,None,,,,,,,,,,,,,t,001,2021_Jul_13_1502,toilet,2021.1.3,99.86986952249822,
0,0,-4,4,1.06,,,,,1,0,1,0,1,33,89,5,,,,,,,,,,,,,,,,,,,,,,,681.3474206998944,None,681.3474206998944,None,680.8471135,None,j,0.5002307000104338,681.3474206998944,None,,,,,,,,,,,,,t,001,2021_Jul_13_1502,toilet,2021.1.3,99.86986952249822,
0,180,-4,4,1.03,,,,,1,0,1,0,1,34,90,18,,,,,,,,,,,,,,,,,,,,,,,682.8584388999734,None,682.8584388999734,None,682.3581227998948,None,j,0.4611085000215098,682.8584388999734,None,,,,,,,,,,,,,t,001,2021_Jul_13_1502,toilet,2021.1.3,99.86986952249822,
180,180,4,-4,0.85,,,,,1,0,1,0,1,35,91,35,,,,,,,,,,,,,,,,,,,,,,,684.3295292999828,None,684.3295292999828,None,683.8291417999426,None,j,0.41417500004172325,684.3295292999828,None,,,,,,,,,,,,,t,001,2021_Jul_13_1502,toilet,2021.1.3,99.86986952249822,
180,180,4,-4,0.94,,,,,1,0,1,0,1,36,92,36,,,,,,,,,,,,,,,,,,,,,,,685.7604479999281,None,685.7604479999281,None,685.2601067998912,None,j,0.4231479000300169,685.7604479999281,None,,,,,,,,,,,,,t,001,2021_Jul_13_1502,toilet,2021.1.3,99.86986952249822,
180,0,-4,4,0.94,,,,,1,0,1,0,1,37,93,43,,,,,,,,,,,,,,,,,,,,,,,687.1913852998987,None,687.1913852998987,None,686.6910446999827,None,f,0.40009350003674626,687.1913852998987,None,,,,,,,,,,,,,t,001,2021_Jul_13_1502,toilet,2021.1.3,99.86986952249822,
0,180,4,-4,0.85,,,,,1,0,1,0,1,38,94,21,,,,,,,,,,,,,,,,,,,,,,,688.5923381999601,None,688.5923381999601,None,688.0919948999071,None,j,0.4551655000541359,688.5923381999601,None,,,,,,,,,,,,,t,001,2021_Jul_13_1502,toilet,2021.1.3,99.86986952249822,
180,0,-4,4,1.0,,,,,1,0,1,0,1,39,95,45,,,,,,,,,,,,,,,,,,,,,,,690.0533247999847,None,690.0533247999847,None,689.5529803999234,None,f,0.30629079998470843,690.0533247999847,None,,,,,,,,,,,,,t,001,2021_Jul_13_1502,toilet,2021.1.3,99.86986952249822,
180,0,4,-4,1.03,,,,,1,0,1,0,1,40,96,53,,,,,,,,,,,,,,,,,,,,,,,691.3742096999194,None,691.3742096999194,None,690.873968299944,None,f,0.44144389999564737,691.3742096999194,None,,,,,,,,,,,,,t,001,2021_Jul_13_1502,toilet,2021.1.3,99.86986952249822,
0,0,-4,4,0.85,,,,,1,0,1,0,1,41,97,0,,,,,,,,,,,,,,,,,,,,,,,692.8251966999378,None,692.8251966999378,None,692.3249304998899,None,f,0.41437099990434945,692.8251966999378,None,,,,,,,,,,,,,t,001,2021_Jul_13_1502,toilet,2021.1.3,99.86986952249822,
180,0,-4,4,1.03,,,,,1,0,1,0,1,42,98,46,,,,,,,,,,,,,,,,,,,,,,,694.2561653999146,None,694.2561653999146,None,693.7558268998982,None,j,0.4073233000235632,694.2561653999146,None,,,,,,,,,,,,,t,001,2021_Jul_13_1502,toilet,2021.1.3,99.86986952249822,
0,180,4,-4,1.0,,,,,1,0,1,0,1,43,99,24,,,,,,,,,,,,,,,,,,,,,,,695.6671265999321,None,695.6671265999321,None,695.1667915999424,None,j,0.42044099990744144,695.6671265999321,None,,,,,,,,,,,,,t,001,2021_Jul_13_1502,toilet,2021.1.3,99.86986952249822,
180,180,4,-4,1.06,,,,,1,0,1,0,1,44,100,40,,,,,,,,,,,,,,,,,,,,,,,697.0981001999462,None,697.0981001999462,None,696.5977596999146,None,f,0.397658999892883,697.0981001999462,None,,,,,,,,,,,,,t,001,2021_Jul_13_1502,toilet,2021.1.3,99.86986952249822,
0,180,4,-4,1.03,,,,,1,0,1,0,1,45,101,25,,,,,,,,,,,,,,,,,,,,,,,698.5090548999142,None,698.5090548999142,None,698.0087124999845,None,f,0.8104977000039071,698.5090548999142,None,,,,,,,,,,,,,t,001,2021_Jul_13_1502,toilet,2021.1.3,99.86986952249822,
180,0,4,-4,1.0,,,,,1,0,1,0,1,46,102,52,,,,,,,,,,,,,,,,,,,,,,,700.3303663999541,None,700.3303663999541,None,699.830025699921,None,j,0.5412004999816418,700.3303663999541,None,,,,,,,,,,,,,t,001,2021_Jul_13_1502,toilet,2021.1.3,99.86986952249822,
0,0,4,-4,1.06,,,,,1,0,1,0,1,47,103,12,,,,,,,,,,,,,,,,,,,,,,,701.8713369999314,None,701.8713369999314,None,701.3709924999857,None,f,0.5841614999808371,701.8713369999314,None,,,,,,,,,,,,,t,001,2021_Jul_13_1502,toilet,2021.1.3,99.86986952249822,
0,180,-4,4,1.15,,,,,1,0,1,0,1,48,104,20,,,,,,,,,,,,,,,,,,,,,,,703.4624110999284,None,703.4624110999284,None,702.9620699998923,None,j,0.4974326000083238,703.4624110999284,None,,,,,,,,,,,,,t,001,2021_Jul_13_1502,toilet,2021.1.3,99.86986952249822,
0,180,-4,4,0.85,,,,,1,0,1,0,1,49,105,14,,,,,,,,,,,,,,,,,,,,,,,704.9734377999557,None,704.9734377999557,None,704.4730937998975,None,f,0.3780662000644952,704.9734377999557,None,,,,,,,,,,,,,t,001,2021_Jul_13_1502,toilet,2021.1.3,99.86986952249822,
180,180,-4,4,1.03,,,,,1,0,1,0,1,50,106,32,,,,,,,,,,,,,,,,,,,,,,,706.3544427999295,None,706.3544427999295,None,705.8540281999158,None,j,0.4851773999398574,706.3544427999295,None,,,,,,,,,,,,,t,001,2021_Jul_13_1502,toilet,2021.1.3,99.86986952249822,
180,180,-4,4,0.97,,,,,1,0,1,0,1,51,107,30,,,,,,,,,,,,,,,,,,,,,,,707.8554789999034,None,707.8554789999034,None,707.3550504999002,None,j,0.5200052000582218,707.8554789999034,None,,,,,,,,,,,,,t,001,2021_Jul_13_1502,toilet,2021.1.3,99.86986952249822,
180,180,4,-4,0.97,,,,,1,0,1,0,1,52,108,37,,,,,,,,,,,,,,,,,,,,,,,709.376419999986,None,709.376419999986,None,708.8760791999521,None,j,0.471120800008066,709.376419999986,None,,,,,,,,,,,,,t,001,2021_Jul_13_1502,toilet,2021.1.3,99.86986952249822,
0,180,-4,4,0.94,,,,,1,0,1,0,1,53,109,15,,,,,,,,,,,,,,,,,,,,,,,710.8474190999987,None,710.8474190999987,None,710.3471408999758,None,f,0.4882248999783769,710.8474190999987,None,,,,,,,,,,,,,t,001,2021_Jul_13_1502,toilet,2021.1.3,99.86986952249822,
0,0,4,-4,1.0,,,,,1,0,1,0,1,54,110,10,,,,,,,,,,,,,,,,,,,,,,,712.3484350999352,None,712.3484350999352,None,711.8480969999218,None,j,0.9711234999122098,712.3484350999352,None,,,,,,,,,,,,,t,001,2021_Jul_13_1502,toilet,2021.1.3,99.86986952249822,
0,180,4,-4,1.06,,,,,1,0,1,0,1,55,111,26,,,,,,,,,,,,,,,,,,,,,,,714.3198563999031,None,714.3198563999031,None,713.8194356999593,None,f,0.39180980005767196,714.3198563999031,None,,,,,,,,,,,,,t,001,2021_Jul_13_1502,toilet,2021.1.3,99.86986952249822,
,,,,,,,,,1,0,1,0,,,,,,,,,,,,,,,,,,,,,,,,,,,,,,,,,,,,,714.7400930000003,None,space,10.979527599993162,714.7400930000003,None,,,,,,,t,001,2021_Jul_13_1502,toilet,2021.1.3,99.86986952249822,
0,0,-4,4,1.15,,,,,2,0,2,0,0,0,0,6,,,,,,,,,,,,,,,,,725.7475567999063,None,space,15.059911099961028,725.7475567999063,None,741.8184161999961,None,741.8184161999961,None,741.3180856999243,None,j,0.5091313000302762,741.8184161999961,None,,,,,,,,,,,,,t,001,2021_Jul_13_1502,toilet,2021.1.3,99.86986952249822,
180,0,-4,4,0.85,,,,,2,0,2,0,0,1,1,42,,,,,,,,,,,,,,,,,,,,,,,743.329512199969,None,743.329512199969,None,742.8391085999319,None,f,0.40603459998965263,743.329512199969,None,,,,,,,,,,,,,t,001,2021_Jul_13_1502,toilet,2021.1.3,99.86986952249822,
180,0,-4,4,1.15,,,,,2,0,2,0,0,2,2,48,,,,,,,,,,,,,,,,,,,,,,,744.7504311999073,None,744.7504311999073,None,744.2501497999765,None,j,0.42502959992270917,744.7504311999073,None,,,,,,,,,,,,,t,001,2021_Jul_13_1502,toilet,2021.1.3,99.86986952249822,
180,0,-4,4,0.94,,,,,2,0,2,0,0,3,3,43,,,,,,,,,,,,,,,,,,,,,,,746.1813703998923,None,746.1813703998923,None,745.6810329,None,f,0.4501600000075996,746.1813703998923,None,,,,,,,,,,,,,t,001,2021_Jul_13_1502,toilet,2021.1.3,99.86986952249822,
0,0,4,-4,0.94,,,,,2,0,2,0,0,4,4,8,,,,,,,,,,,,,,,,,,,,,,,747.6323537999997,None,747.6323537999997,None,747.132016699994,None,j,0.6631888999836519,747.6323537999997,None,,,,,,,,,,,,,t,001,2021_Jul_13_1502,toilet,2021.1.3,99.86986952249822,
0,180,4,-4,0.94,,,,,2,0,2,0,0,5,5,22,,,,,,,,,,,,,,,,,,,,,,,749.3134948998922,None,749.3134948998922,None,748.8131579998881,None,j,0.5500691999914125,749.3134948998922,None,,,,,,,,,,,,,t,001,2021_Jul_13_1502,toilet,2021.1.3,99.86986952249822,
180,180,4,-4,1.03,,,,,2,0,2,0,0,6,6,39,,,,,,,,,,,,,,,,,,,,,,,750.874634699896,None,750.874634699896,None,750.3742113999324,None,f,0.34893199999351054,750.874634699896,None,,,,,,,,,,,,,t,001,2021_Jul_13_1502,toilet,2021.1.3,99.86986952249822,
180,180,-4,4,1.03,,,,,2,0,2,0,0,7,7,32,,,,,,,,,,,,,,,,,,,,,,,752.2355061999988,None,752.2355061999988,None,751.7352314000018,None,j,0.699977400014177,752.2355061999988,None,,,,,,,,,,,,,t,001,2021_Jul_13_1502,toilet,2021.1.3,99.86986952249822,
180,180,-4,4,0.85,,,,,2,0,2,0,0,8,8,28,,,,,,,,,,,,,,,,,,,,,,,753.9366248999722,None,753.9366248999722,None,753.4362853999482,None,f,0.42290790006518364,753.9366248999722,None,,,,,,,,,,,,,t,001,2021_Jul_13_1502,toilet,2021.1.3,99.86986952249822,
180,0,-4,4,1.0,,,,,2,0,2,0,0,9,9,45,,,,,,,,,,,,,,,,,,,,,,,755.3675949999597,None,755.3675949999597,None,754.8672588999616,None,f,0.7361685000360012,755.3675949999597,None,,,,,,,,,,,,,t,001,2021_Jul_13_1502,toilet,2021.1.3,99.86986952249822,
180,0,4,-4,1.0,,,,,2,0,2,0,0,10,10,52,,,,,,,,,,,,,,,,,,,,,,,757.1287954999134,None,757.1287954999134,None,756.6284499999601,None,j,0.3989047999493778,757.1287954999134,None,,,,,,,,,,,,,t,001,2021_Jul_13_1502,toilet,2021.1.3,99.86986952249822,
0,180,4,-4,0.85,,,,,2,0,2,0,0,11,11,21,,,,,,,,,,,,,,,,,,,,,,,758.539827899891,None,758.539827899891,None,758.0394049999304,None,j,0.49177349999081343,758.539827899891,None,,,,,,,,,,,,,t,001,2021_Jul_13_1502,toilet,2021.1.3,99.86986952249822,
180,180,-4,4,1.0,,,,,2,0,2,0,0,12,12,31,,,,,,,,,,,,,,,,,,,,,,,760.0407781999093,None,760.0407781999093,None,759.5405116999755,None,f,0.6386892000446096,760.0407781999093,None,,,,,,,,,,,,,t,001,2021_Jul_13_1502,toilet,2021.1.3,99.86986952249822,
180,0,4,-4,1.15,,,,,2,0,2,0,0,13,13,55,,,,,,,,,,,,,,,,,,,,,,,761.6818756998982,None,761.6818756998982,None,761.1815328999655,None,f,0.48559639998711646,761.6818756998982,None,,,,,,,,,,,,,t,001,2021_Jul_13_1502,toilet,2021.1.3,99.86986952249822,
0,180,-4,4,1.0,,,,,2,0,2,0,0,14,14,17,,,,,,,,,,,,,,,,,,,,,,,763.1728895999258,None,763.1728895999258,None,762.6725490998942,None,f,0.9306210000067949,763.1728895999258,None,,,,,,,,,,,,,t,001,2021_Jul_13_1502,toilet,2021.1.3,99.86986952249822,
0,0,4,-4,0.85,,,,,2,0,2,0,0,15,15,7,,,,,,,,,,,,,,,,,,,,,,,765.1142821999965,None,765.1142821999965,None,764.6138622999424,None,j,0.4934237999841571,765.1142821999965,None,,,,,,,,,,,,,t,001,2021_Jul_13_1502,toilet,2021.1.3,99.86986952249822,
0,180,-4,4,0.97,,,,,2,0,2,0,0,16,16,16,,,,,,,,,,,,,,,,,,,,,,,766.6252332999138,None,766.6252332999138,None,766.1249872999033,None,f,0.6142265999224037,766.6252332999138,None,,,,,,,,,,,,,t,001,2021_Jul_13_1502,toilet,2021.1.3,99.86986952249822,
180,0,4,-4,1.03,,,,,2,0,2,0,0,17,17,53,,,,,,,,,,,,,,,,,,,,,,,768.2463231999427,None,768.2463231999427,None,767.7459773999872,None,f,0.8651942999567837,768.2463231999427,None,,,,,,,,,,,,,t,001,2021_Jul_13_1502,toilet,2021.1.3,99.86986952249822,
180,180,4,-4,0.94,,,,,2,0,2,0,0,18,18,36,,,,,,,,,,,,,,,,,,,,,,,770.1175901999231,None,770.1175901999231,None,769.6172525999136,None,j,0.5940990999806672,770.1175901999231,None,,,,,,,,,,,,,t,001,2021_Jul_13_1502,toilet,2021.1.3,99.86986952249822,
180,180,4,-4,1.0,,,,,2,0,2,0,0,19,19,38,,,,,,,,,,,,,,,,,,,,,,,771.7286936999299,None,771.7286936999299,None,771.2283437999431,None,f,0.5187806999310851,771.7286936999299,None,,,,,,,,,,,,,t,001,2021_Jul_13_1502,toilet,2021.1.3,99.86986952249822,
180,0,4,-4,1.06,,,,,2,0,2,0,0,20,20,54,,,,,,,,,,,,,,,,,,,,,,,773.2497984999791,None,773.2497984999791,None,772.7494579999475,None,f,0.5497490999987349,773.2497984999791,None,,,,,,,,,,,,,t,001,2021_Jul_13_1502,toilet,2021.1.3,99.86986952249822,
0,0,4,-4,1.15,,,,,2,0,2,0,0,21,21,13,,,,,,,,,,,,,,,,,,,,,,,774.8107666999567,None,774.8107666999567,None,774.3104761999566,None,f,0.47668980003800243,774.8107666999567,None,,,,,,,,,,,,,t,001,2021_Jul_13_1502,toilet,2021.1.3,99.86986952249822,
0,0,-4,4,1.06,,,,,2,0,2,0,0,22,22,5,,,,,,,,,,,,,,,,,,,,,,,776.2917748999316,None,776.2917748999316,None,775.7914366999175,None,j,0.48372399993240833,776.2917748999316,None,,,,,,,,,,,,,t,001,2021_Jul_13_1502,toilet,2021.1.3,99.86986952249822,
180,180,4,-4,1.06,,,,,2,0,2,0,0,23,23,40,,,,,,,,,,,,,,,,,,,,,,,777.7827886999585,None,777.7827886999585,None,777.2824530999642,None,f,0.8327710001030937,777.7827886999585,None,,,,,,,,,,,,,t,001,2021_Jul_13_1502,toilet,2021.1.3,99.86986952249822,
0,0,-4,4,1.03,,,,,2,0,2,0,0,24,24,4,,,,,,,,,,,,,,,,,,,,,,,779.6340841999045,None,779.6340841999045,None,779.1337018999038,None,j,0.533540099975653,779.6340841999045,None,,,,,,,,,,,,,t,001,2021_Jul_13_1502,toilet,2021.1.3,99.86986952249822,
180,180,-4,4,0.94,,,,,2,0,2,0,0,25,25,29,,,,,,,,,,,,,,,,,,,,,,,781.1850914999377,None,781.1850914999377,None,780.6848369999789,None,f,0.8383840000024065,781.1850914999377,None,,,,,,,,,,,,,t,001,2021_Jul_13_1502,toilet,2021.1.3,99.86986952249822,
0,0,4,-4,1.0,,,,,2,0,2,0,0,26,26,10,,,,,,,,,,,,,,,,,,,,,,,783.0263430998893,None,783.0263430998893,None,782.5260025999742,None,f,1.3011444000294432,783.0263430998893,None,,,,,,,,,,,,,t,001,2021_Jul_13_1502,toilet,2021.1.3,99.86986952249822,
180,0,4,-4,0.94,,,,,2,0,2,0,0,27,27,50,,,,,,,,,,,,,,,,,,,,,,,785.327903999947,None,785.327903999947,None,784.827568699955,None,j,0.5037575999740511,785.327903999947,None,,,,,,,,,,,,,t,001,2021_Jul_13_1502,toilet,2021.1.3,99.86986952249822,
0,180,4,-4,0.97,,,,,2,0,2,0,0,28,28,23,,,,,,,,,,,,,,,,,,,,,,,786.8590169999516,None,786.8590169999516,None,786.3586037999485,None,f,0.9405585998902097,786.8590169999516,None,,,,,,,,,,,,,t,001,2021_Jul_13_1502,toilet,2021.1.3,99.86986952249822,
180,0,-4,4,1.06,,,,,2,0,2,0,0,29,29,47,,,,,,,,,,,,,,,,,,,,,,,788.8103599998867,None,788.8103599998867,None,788.3099332998972,None,j,0.5411293000215665,788.8103599998867,None,,,,,,,,,,,,,t,001,2021_Jul_13_1502,toilet,2021.1.3,99.86986952249822,
0,0,-4,4,0.94,,,,,2,0,2,0,0,30,30,1,,,,,,,,,,,,,,,,,,,,,,,790.351310399943,None,790.351310399943,None,789.8509736999404,None,f,1.0801526999566704,790.351310399943,None,,,,,,,,,,,,,t,001,2021_Jul_13_1502,toilet,2021.1.3,99.86986952249822,
180,180,-4,4,1.06,,,,,2,0,2,0,0,31,31,33,,,,,,,,,,,,,,,,,,,,,,,792.4327200999251,None,792.4327200999251,None,791.9323820999125,None,j,0.47079529997427016,792.4327200999251,None,,,,,,,,,,,,,t,001,2021_Jul_13_1502,toilet,2021.1.3,99.86986952249822,
180,180,4,-4,0.97,,,,,2,0,2,0,0,32,32,37,,,,,,,,,,,,,,,,,,,,,,,793.9137178999372,None,793.9137178999372,None,793.413381399936,None,j,0.5098080999450758,793.9137178999372,None,,,,,,,,,,,,,t,001,2021_Jul_13_1502,toilet,2021.1.3,99.86986952249822,
0,0,4,-4,1.06,,,,,2,0,2,0,0,33,33,12,,,,,,,,,,,,,,,,,,,,,,,795.4347574999556,None,795.4347574999556,None,794.9345074999146,None,f,0.81287450005766,795.4347574999556,None,,,,,,,,,,,,,t,001,2021_Jul_13_1502,toilet,2021.1.3,99.86986952249822,
180,0,4,-4,0.85,,,,,2,0,2,0,0,34,34,49,,,,,,,,,,,,,,,,,,,,,,,797.2659929998918,None,797.2659929998918,None,796.7656540999888,None,j,0.4055565999587998,797.2659929998918,None,,,,,,,,,,,,,t,001,2021_Jul_13_1502,toilet,2021.1.3,99.86986952249822,
180,180,4,-4,1.15,,,,,2,0,2,0,0,35,35,41,,,,,,,,,,,,,,,,,,,,,,,798.6769483999815,None,798.6769483999815,None,798.1766110999743,None,f,0.4826171000022441,798.6769483999815,None,,,,,,,,,,,,,t,001,2021_Jul_13_1502,toilet,2021.1.3,99.86986952249822,
0,180,-4,4,0.85,,,,,2,0,2,0,0,36,36,14,,,,,,,,,,,,,,,,,,,,,,,800.1679575999733,None,800.1679575999733,None,799.6676283999113,None,f,0.4635124000487849,800.1679575999733,None,,,,,,,,,,,,,t,001,2021_Jul_13_1502,toilet,2021.1.3,99.86986952249822,
0,180,4,-4,1.03,,,,,2,0,2,0,0,37,37,25,,,,,,,,,,,,,,,,,,,,,,,801.6389534999616,None,801.6389534999616,None,801.1386144999415,None,f,0.4805451000574976,801.6389534999616,None,,,,,,,,,,,,,t,001,2021_Jul_13_1502,toilet,2021.1.3,99.86986952249822,
0,0,4,-4,1.03,,,,,2,0,2,0,0,38,38,11,,,,,,,,,,,,,,,,,,,,,,,803.1200397999492,None,803.1200397999492,None,802.6197017999366,None,f,0.5994798999745399,803.1200397999492,None,,,,,,,,,,,,,t,001,2021_Jul_13_1502,toilet,2021.1.3,99.86986952249822,
0,180,-4,4,1.15,,,,,2,0,2,0,0,39,39,20,,,,,,,,,,,,,,,,,,,,,,,804.7310682999669,None,804.7310682999669,None,804.2307165999664,None,j,0.4283873999956995,804.7310682999669,None,,,,,,,,,,,,,t,001,2021_Jul_13_1502,toilet,2021.1.3,99.86986952249822,
0,180,-4,4,1.06,,,,,2,0,2,0,0,40,40,19,,,,,,,,,,,,,,,,,,,,,,,806.1620259999763,None,806.1620259999763,None,805.6616922999965,None,j,0.4215170000679791,806.1620259999763,None,,,,,,,,,,,,,t,001,2021_Jul_13_1502,toilet,2021.1.3,99.86986952249822,
180,0,-4,4,1.03,,,,,2,0,2,0,0,41,41,46,,,,,,,,,,,,,,,,,,,,,,,807.5829881998943,None,807.5829881998943,None,807.0826487999875,None,f,0.36067910003475845,807.5829881998943,None,,,,,,,,,,,,,t,001,2021_Jul_13_1502,toilet,2021.1.3,99.86986952249822,
0,180,4,-4,1.06,,,,,2,0,2,0,0,42,42,26,,,,,,,,,,,,,,,,,,,,,,,808.9539204998873,None,808.9539204998873,None,808.4535858999006,None,f,0.46170189999975264,808.9539204998873,None,,,,,,,,,,,,,t,001,2021_Jul_13_1502,toilet,2021.1.3,99.86986952249822,
180,0,-4,4,0.97,,,,,2,0,2,0,0,43,43,44,,,,,,,,,,,,,,,,,,,,,,,810.4249968999065,None,810.4249968999065,None,809.9246629999252,None,f,0.5265179000562057,810.4249968999065,None,,,,,,,,,,,,,t,001,2021_Jul_13_1502,toilet,2021.1.3,99.86986952249822,
0,0,4,-4,0.97,,,,,2,0,2,0,0,44,44,9,,,,,,,,,,,,,,,,,,,,,,,811.9659624999622,None,811.9659624999622,None,811.4656235999428,None,j,0.6015970000298694,811.9659624999622,None,,,,,,,,,,,,,t,001,2021_Jul_13_1502,toilet,2021.1.3,99.86986952249822,
180,180,4,-4,0.85,,,,,2,0,2,0,0,45,45,35,,,,,,,,,,,,,,,,,,,,,,,813.5670428999001,None,813.5670428999001,None,813.0667066999013,None,j,0.6486731999320909,813.5670428999001,None,,,,,,,,,,,,,t,001,2021_Jul_13_1502,toilet,2021.1.3,99.86986952249822,
180,0,4,-4,0.97,,,,,2,0,2,0,0,46,46,51,,,,,,,,,,,,,,,,,,,,,,,815.2281647999771,None,815.2281647999771,None,814.7278280999744,None,j,0.7634064999874681,815.2281647999771,None,,,,,,,,,,,,,t,001,2021_Jul_13_1502,toilet,2021.1.3,99.86986952249822,
0,180,-4,4,0.94,,,,,2,0,2,0,0,47,47,15,,,,,,,,,,,,,,,,,,,,,,,816.9994430999504,None,816.9994430999504,None,816.4990252999123,None,f,0.7521281000226736,816.9994430999504,None,,,,,,,,,,,,,t,001,2021_Jul_13_1502,toilet,2021.1.3,99.86986952249822,
180,180,-4,4,0.97,,,,,2,0,2,0,0,48,48,30,,,,,,,,,,,,,,,,,,,,,,,818.7605820999015,None,818.7605820999015,None,818.2603106999304,None,f,0.6870285000186414,818.7605820999015,None,,,,,,,,,,,,,t,001,2021_Jul_13_1502,toilet,2021.1.3,99.86986952249822,
0,0,-4,4,0.85,,,,,2,0,2,0,0,49,49,0,,,,,,,,,,,,,,,,,,,,,,,820.4517664999003,None,820.4517664999003,None,819.9513664999977,None,f,0.6279230000218377,820.4517664999003,None,,,,,,,,,,,,,t,001,2021_Jul_13_1502,toilet,2021.1.3,99.86986952249822,
0,180,4,-4,1.15,,,,,2,0,2,0,0,50,50,27,,,,,,,,,,,,,,,,,,,,,,,822.0928278999636,None,822.0928278999636,None,821.5924882999389,None,f,0.41071399999782443,822.0928278999636,None,,,,,,,,,,,,,t,001,2021_Jul_13_1502,toilet,2021.1.3,99.86986952249822,
180,180,-4,4,1.15,,,,,2,0,2,0,0,51,51,34,,,,,,,,,,,,,,,,,,,,,,,823.5137869999744,None,823.5137869999744,None,823.0134495999664,None,j,0.541728200041689,823.5137869999744,None,,,,,,,,,,,,,t,001,2021_Jul_13_1502,toilet,2021.1.3,99.86986952249822,
0,180,4,-4,1.0,,,,,2,0,2,0,0,52,52,24,,,,,,,,,,,,,,,,,,,,,,,825.0649217999307,None,825.0649217999307,None,824.5645023999969,None,f,0.5106293000280857,825.0649217999307,None,,,,,,,,,,,,,t,001,2021_Jul_13_1502,toilet,2021.1.3,99.86986952249822,
0,0,-4,4,1.0,,,,,2,0,2,0,0,53,53,3,,,,,,,,,,,,,,,,,,,,,,,826.5858717999654,None,826.5858717999654,None,826.0855718998937,None,f,0.5095672000898048,826.5858717999654,None,,,,,,,,,,,,,t,001,2021_Jul_13_1502,toilet,2021.1.3,99.86986952249822,
0,0,-4,4,0.97,,,,,2,0,2,0,0,54,54,2,,,,,,,,,,,,,,,,,,,,,,,828.0968947999645,None,828.0968947999645,None,827.596554699936,None,f,0.5508069000206888,828.0968947999645,None,,,,,,,,,,,,,t,001,2021_Jul_13_1502,toilet,2021.1.3,99.86986952249822,
0,180,-4,4,1.03,,,,,2,0,2,0,0,55,55,18,,,,,,,,,,,,,,,,,,,,,,,829.6579514999175,None,829.6579514999175,None,829.1576177999377,None,j,0.5256282999180257,829.6579514999175,None,,,,,,,,,,,,,t,001,2021_Jul_13_1502,toilet,2021.1.3,99.86986952249822,
180,180,-4,4,1.03,,,,,2,0,2,0,1,0,56,32,,,,,,,,,,,,,,,,,,,,,,,831.1990122999996,None,831.1990122999996,None,830.6986577999778,None,j,0.4725775000406429,831.1990122999996,None,,,,,,,,,,,,,t,001,2021_Jul_13_1502,toilet,2021.1.3,99.86986952249822,
180,0,4,-4,1.06,,,,,2,0,2,0,1,1,57,54,,,,,,,,,,,,,,,,,,,,,,,832.6900849998929,None,832.6900849998929,None,832.1896662999643,None,f,0.46942249999847263,832.6900849998929,None,,,,,,,,,,,,,t,001,2021_Jul_13_1502,toilet,2021.1.3,99.86986952249822,
0,180,-4,4,1.0,,,,,2,0,2,0,1,2,58,17,,,,,,,,,,,,,,,,,,,,,,,834.1710105999373,None,834.1710105999373,None,833.6706765999552,None,j,0.5724179999670014,834.1710105999373,None,,,,,,,,,,,,,t,001,2021_Jul_13_1502,toilet,2021.1.3,99.86986952249822,
180,180,-4,4,1.06,,,,,2,0,2,0,1,3,59,33,,,,,,,,,,,,,,,,,,,,,,,835.7520812998991,None,835.7520812998991,None,835.2517418999923,None,j,0.543435400002636,835.7520812998991,None,,,,,,,,,,,,,t,001,2021_Jul_13_1502,toilet,2021.1.3,99.86986952249822,
180,0,-4,4,0.85,,,,,2,0,2,0,1,4,60,42,,,,,,,,,,,,,,,,,,,,,,,837.3131455999101,None,837.3131455999101,None,836.8128017999697,None,f,0.4703659999649972,837.3131455999101,None,,,,,,,,,,,,,t,001,2021_Jul_13_1502,toilet,2021.1.3,99.86986952249822,
0,0,4,-4,0.94,,,,,2,0,2,0,1,5,61,8,,,,,,,,,,,,,,,,,,,,,,,838.7941447999328,None,838.7941447999328,None,838.2938200999051,None,j,0.49338609992992133,838.7941447999328,None,,,,,,,,,,,,,t,001,2021_Jul_13_1502,toilet,2021.1.3,99.86986952249822,
180,180,4,-4,0.85,,,,,2,0,2,0,1,6,62,35,,,,,,,,,,,,,,,,,,,,,,,840.2952426999109,None,840.2952426999109,None,839.7949065999128,None,j,0.48023760004434735,840.2952426999109,None,,,,,,,,,,,,,t,001,2021_Jul_13_1502,toilet,2021.1.3,99.86986952249822,
180,180,4,-4,1.15,,,,,2,0,2,0,1,7,63,41,,,,,,,,,,,,,,,,,,,,,,,841.7861742998939,None,841.7861742998939,None,841.2858338999795,None,f,0.44532850000541657,841.7861742998939,None,,,,,,,,,,,,,t,001,2021_Jul_13_1502,toilet,2021.1.3,99.86986952249822,
0,0,4,-4,1.03,,,,,2,0,2,0,1,8,64,11,,,,,,,,,,,,,,,,,,,,,,,843.2371579998871,None,843.2371579998871,None,842.736813699943,None,f,0.6264244000194594,843.2371579998871,None,,,,,,,,,,,,,t,001,2021_Jul_13_1502,toilet,2021.1.3,99.86986952249822,
0,180,4,-4,0.94,,,,,2,0,2,0,1,9,65,22,,,,,,,,,,,,,,,,,,,,,,,844.8782734998967,None,844.8782734998967,None,844.3779316999717,None,j,0.9212430999614298,844.8782734998967,None,,,,,,,,,,,,,t,001,2021_Jul_13_1502,toilet,2021.1.3,99.86986952249822,
180,180,-4,4,1.15,,,,,2,0,2,0,1,10,66,34,,,,,,,,,,,,,,,,,,,,,,,846.8095838999143,None,846.8095838999143,None,846.3093293999555,None,j,0.5740343999350443,846.8095838999143,None,,,,,,,,,,,,,t,001,2021_Jul_13_1502,toilet,2021.1.3,99.86986952249822,
0,180,4,-4,1.06,,,,,2,0,2,0,1,11,67,26,,,,,,,,,,,,,,,,,,,,,,,848.4006616999395,None,848.4006616999395,None,847.900333999889,None,f,0.4707547998987138,848.4006616999395,None,,,,,,,,,,,,,t,001,2021_Jul_13_1502,toilet,2021.1.3,99.86986952249822,
180,0,-4,4,1.06,,,,,2,0,2,0,1,12,68,47,,,,,,,,,,,,,,,,,,,,,,,849.8716560999164,None,849.8716560999164,None,849.3713180999039,None,f,0.8559180999873206,849.8716560999164,None,,,,,,,,,,,,,t,001,2021_Jul_13_1502,toilet,2021.1.3,99.86986952249822,
180,0,4,-4,0.85,,,,,2,0,2,0,1,13,69,49,,,,,,,,,,,,,,,,,,,,,,,851.7429271999281,None,851.7429271999281,None,851.2425804999657,None,j,0.4247584999538958,851.7429271999281,None,,,,,,,,,,,,,t,001,2021_Jul_13_1502,toilet,2021.1.3,99.86986952249822,
0,180,-4,4,1.06,,,,,2,0,2,0,1,14,70,19,,,,,,,,,,,,,,,,,,,,,,,853.1838993999409,None,853.1838993999409,None,852.6835590999108,None,j,0.4716179999522865,853.1838993999409,None,,,,,,,,,,,,,t,001,2021_Jul_13_1502,toilet,2021.1.3,99.86986952249822,
180,0,4,-4,0.97,,,,,2,0,2,0,1,15,71,51,,,,,,,,,,,,,,,,,,,,,,,854.664962299983,None,854.664962299983,None,854.1645979000023,None,f,0.6064873998984694,854.664962299983,None,,,,,,,,,,,,,t,001,2021_Jul_13_1502,toilet,2021.1.3,99.86986952249822,
180,0,4,-4,0.94,,,,,2,0,2,0,1,16,72,50,,,,,,,,,,,,,,,,,,,,,,,856.2759870999726,None,856.2759870999726,None,855.7756508999737,None,j,0.48347680002916604,856.2759870999726,None,,,,,,,,,,,,,t,001,2021_Jul_13_1502,toilet,2021.1.3,99.86986952249822,
180,180,4,-4,0.97,,,,,2,0,2,0,1,17,73,37,,,,,,,,,,,,,,,,,,,,,,,857.7670017998898,None,857.7670017998898,None,857.2666596999625,None,j,0.8644297999562696,857.7670017998898,None,,,,,,,,,,,,,t,001,2021_Jul_13_1502,toilet,2021.1.3,99.86986952249822,
0,180,-4,4,1.15,,,,,2,0,2,0,1,18,74,20,,,,,,,,,,,,,,,,,,,,,,,859.6382670999737,None,859.6382670999737,None,859.1379279999528,None,j,0.4652988000307232,859.6382670999737,None,,,,,,,,,,,,,t,001,2021_Jul_13_1502,toilet,2021.1.3,99.86986952249822,
180,0,-4,4,1.0,,,,,2,0,2,0,1,19,75,45,,,,,,,,,,,,,,,,,,,,,,,861.1193529999582,None,861.1193529999582,None,860.6189328999026,None,f,0.504143700003624,861.1193529999582,None,,,,,,,,,,,,,t,001,2021_Jul_13_1502,toilet,2021.1.3,99.86986952249822,
0,0,4,-4,0.85,,,,,2,0,2,0,1,20,76,7,,,,,,,,,,,,,,,,,,,,,,,862.6303741999436,None,862.6303741999436,None,862.1300369999371,None,j,0.5290302999783307,862.6303741999436,None,,,,,,,,,,,,,t,001,2021_Jul_13_1502,toilet,2021.1.3,99.86986952249822,
0,0,-4,4,1.06,,,,,2,0,2,0,1,21,77,5,,,,,,,,,,,,,,,,,,,,,,,864.1613391999854,None,864.1613391999854,None,863.6610030999873,None,j,0.6141715999692678,864.1613391999854,None,,,,,,,,,,,,,t,001,2021_Jul_13_1502,toilet,2021.1.3,99.86986952249822,
0,0,-4,4,1.03,,,,,2,0,2,0,1,22,78,4,,,,,,,,,,,,,,,,,,,,,,,865.7824403999839,None,865.7824403999839,None,865.2821065000026,None,j,0.5610252000624314,865.7824403999839,None,,,,,,,,,,,,,t,001,2021_Jul_13_1502,toilet,2021.1.3,99.86986952249822,
0,0,-4,4,1.15,,,,,2,0,2,0,1,23,79,6,,,,,,,,,,,,,,,,,,,,,,,867.3535043000011,None,867.3535043000011,None,866.8531806999817,None,j,0.5100364000536501,867.3535043000011,None,,,,,,,,,,,,,t,001,2021_Jul_13_1502,toilet,2021.1.3,99.86986952249822,
180,0,4,-4,1.0,,,,,2,0,2,0,1,24,80,52,,,,,,,,,,,,,,,,,,,,,,,868.8746265999507,None,868.8746265999507,None,868.3741938999156,None,j,1.037012999993749,868.8746265999507,None,,,,,,,,,,,,,t,001,2021_Jul_13_1502,toilet,2021.1.3,99.86986952249822,
0,0,4,-4,1.15,,,,,2,0,2,0,1,25,81,13,,,,,,,,,,,,,,,,,,,,,,,870.9259215999627,None,870.9259215999627,None,870.4256219998933,None,f,0.4254888000432402,870.9259215999627,None,,,,,,,,,,,,,t,001,2021_Jul_13_1502,toilet,2021.1.3,99.86986952249822,
0,180,4,-4,1.03,,,,,2,0,2,0,1,26,82,25,,,,,,,,,,,,,,,,,,,,,,,872.3568893999327,None,872.3568893999327,None,871.8565506999148,None,f,2.0507617999101058,872.3568893999327,None,,,,,,,,,,,,,t,001,2021_Jul_13_1502,toilet,2021.1.3,99.86986952249822,
0,180,4,-4,0.85,,,,,2,0,2,0,1,27,83,21,,,,,,,,,,,,,,,,,,,,,,,875.4189660999691,None,875.4189660999691,None,874.9186238999246,None,j,0.4926536000566557,875.4189660999691,None,,,,,,,,,,,,,t,001,2021_Jul_13_1502,toilet,2021.1.3,99.86986952249822,
180,180,-4,4,0.97,,,,,2,0,2,0,1,28,84,30,,,,,,,,,,,,,,,,,,,,,,,876.9299868999515,None,876.9299868999515,None,876.4297446999699,None,f,0.885448900051415,876.9299868999515,None,,,,,,,,,,,,,t,001,2021_Jul_13_1502,toilet,2021.1.3,99.86986952249822,
0,0,-4,4,0.97,,,,,2,0,2,0,1,29,85,2,,,,,,,,,,,,,,,,,,,,,,,878.8212783999043,None,878.8212783999043,None,878.3209387999959,None,f,0.5462633999995887,878.8212783999043,None,,,,,,,,,,,,,t,001,2021_Jul_13_1502,toilet,2021.1.3,99.86986952249822,
0,180,4,-4,0.97,,,,,2,0,2,0,1,30,86,23,,,,,,,,,,,,,,,,,,,,,,,880.3723306999309,None,880.3723306999309,None,879.8719895998947,None,f,0.7552636999171227,880.3723306999309,None,,,,,,,,,,,,,t,001,2021_Jul_13_1502,toilet,2021.1.3,99.86986952249822,
180,0,-4,4,0.94,,,,,2,0,2,0,1,31,87,43,,,,,,,,,,,,,,,,,,,,,,,882.1435242999578,None,882.1435242999578,None,881.6431855999399,None,f,0.45609980006702244,882.1435242999578,None,,,,,,,,,,,,,t,001,2021_Jul_13_1502,toilet,2021.1.3,99.86986952249822,
180,180,4,-4,1.0,,,,,2,0,2,0,1,32,88,38,,,,,,,,,,,,,,,,,,,,,,,883.6145335999317,None,883.6145335999317,None,883.1142760999501,None,f,1.0170118999667466,883.6145335999317,None,,,,,,,,,,,,,t,001,2021_Jul_13_1502,toilet,2021.1.3,99.86986952249822,
0,0,4,-4,0.97,,,,,2,0,2,0,1,33,89,9,,,,,,,,,,,,,,,,,,,,,,,885.6458971999818,None,885.6458971999818,None,885.1455559999449,None,f,0.6016204999759793,885.6458971999818,None,,,,,,,,,,,,,t,001,2021_Jul_13_1502,toilet,2021.1.3,99.86986952249822,
0,180,-4,4,1.03,,,,,2,0,2,0,1,34,90,18,,,,,,,,,,,,,,,,,,,,,,,887.246981299948,None,887.246981299948,None,886.7466482999735,None,j,0.4085870999842882,887.246981299948,None,,,,,,,,,,,,,t,001,2021_Jul_13_1502,toilet,2021.1.3,99.86986952249822,
180,180,4,-4,1.06,,,,,2,0,2,0,1,35,91,40,,,,,,,,,,,,,,,,,,,,,,,888.6679465998895,None,888.6679465998895,None,888.1676136999158,None,f,0.5395865000318736,888.6679465998895,None,,,,,,,,,,,,,t,001,2021_Jul_13_1502,toilet,2021.1.3,99.86986952249822,
0,0,-4,4,0.85,,,,,2,0,2,0,1,36,92,0,,,,,,,,,,,,,,,,,,,,,,,890.2090789999347,None,890.2090789999347,None,889.7086529999506,None,f,0.5343929999507964,890.2090789999347,None,,,,,,,,,,,,,t,001,2021_Jul_13_1502,toilet,2021.1.3,99.86986952249822,
180,180,4,-4,1.03,,,,,2,0,2,0,1,37,93,39,,,,,,,,,,,,,,,,,,,,,,,891.7501175999641,None,891.7501175999641,None,891.2497087999946,None,f,0.5936111999908462,891.7501175999641,None,,,,,,,,,,,,,t,001,2021_Jul_13_1502,toilet,2021.1.3,99.86986952249822,
180,0,4,-4,1.03,,,,,2,0,2,0,1,38,94,53,,,,,,,,,,,,,,,,,,,,,,,893.3611320999917,None,893.3611320999917,None,892.8607950999867,None,j,1.0142768999794498,893.3611320999917,None,,,,,,,,,,,,,t,001,2021_Jul_13_1502,toilet,2021.1.3,99.86986952249822,
0,180,4,-4,1.15,,,,,2,0,2,0,1,39,95,27,,,,,,,,,,,,,,,,,,,,,,,895.3825099999085,None,895.3825099999085,None,894.8821942999493,None,f,0.41722960001789033,895.3825099999085,None,,,,,,,,,,,,,t,001,2021_Jul_13_1502,toilet,2021.1.3,99.86986952249822,
0,0,-4,4,0.94,,,,,2,0,2,0,1,40,96,1,,,,,,,,,,,,,,,,,,,,,,,896.8134820999112,None,896.8134820999112,None,896.3131314999191,None,f,0.4740851999958977,896.8134820999112,None,,,,,,,,,,,,,t,001,2021_Jul_13_1502,toilet,2021.1.3,99.86986952249822,
180,180,4,-4,0.94,,,,,2,0,2,0,1,41,97,36,,,,,,,,,,,,,,,,,,,,,,,898.3044860999798,None,898.3044860999798,None,897.8042364999419,None,j,0.5350799000589177,898.3044860999798,None,,,,,,,,,,,,,t,001,2021_Jul_13_1502,toilet,2021.1.3,99.86986952249822,
180,0,-4,4,0.97,,,,,2,0,2,0,1,42,98,44,,,,,,,,,,,,,,,,,,,,,,,899.8555567999138,None,899.8555567999138,None,899.3552745999768,None,f,0.6799862999469042,899.8555567999138,None,,,,,,,,,,,,,t,001,2021_Jul_13_1502,toilet,2021.1.3,99.86986952249822,
180,180,-4,4,0.94,,,,,2,0,2,0,1,43,99,29,,,,,,,,,,,,,,,,,,,,,,,901.5366723999614,None,901.5366723999614,None,901.03633849998,None,f,1.1427829000167549,901.5366723999614,None,,,,,,,,,,,,,t,001,2021_Jul_13_1502,toilet,2021.1.3,99.86986952249822,
0,0,4,-4,1.0,,,,,2,0,2,0,1,44,100,10,,,,,,,,,,,,,,,,,,,,,,,903.6981374999741,None,903.6981374999741,None,903.1977952999296,None,f,0.9972803000127897,903.6981374999741,None,,,,,,,,,,,,,t,001,2021_Jul_13_1502,toilet,2021.1.3,99.86986952249822,
0,180,-4,4,0.97,,,,,2,0,2,0,1,45,101,16,,,,,,,,,,,,,,,,,,,,,,,905.699579399894,None,905.699579399894,None,905.1992495999439,None,j,0.4998985000420362,905.699579399894,None,,,,,,,,,,,,,t,001,2021_Jul_13_1502,toilet,2021.1.3,99.86986952249822,
180,0,-4,4,1.15,,,,,2,0,2,0,1,46,102,48,,,,,,,,,,,,,,,,,,,,,,,907.2105371999787,None,907.2105371999787,None,906.7102615999756,None,j,0.540873600053601,907.2105371999787,None,,,,,,,,,,,,,t,001,2021_Jul_13_1502,toilet,2021.1.3,99.86986952249822,
0,180,4,-4,1.0,,,,,2,0,2,0,1,47,103,24,,,,,,,,,,,,,,,,,,,,,,,908.7515600998886,None,908.7515600998886,None,908.2512206999818,None,f,2.2318603000603616,908.7515600998886,None,,,,,,,,,,,,,t,001,2021_Jul_13_1502,toilet,2021.1.3,99.86986952249822,
180,0,4,-4,1.15,,,,,2,0,2,0,1,48,104,55,,,,,,,,,,,,,,,,,,,,,,,911.9837544999318,None,911.9837544999318,None,911.4834237999748,None,f,0.7597134999232367,911.9837544999318,None,,,,,,,,,,,,,t,001,2021_Jul_13_1502,toilet,2021.1.3,99.86986952249822,
0,180,-4,4,0.94,,,,,2,0,2,0,1,49,105,15,,,,,,,,,,,,,,,,,,,,,,,913.755045699887,None,913.755045699887,None,913.2546127999667,None,f,2.204559199977666,913.755045699887,None,,,,,,,,,,,,,t,001,2021_Jul_13_1502,toilet,2021.1.3,99.86986952249822,
180,180,-4,4,0.85,,,,,2,0,2,0,1,50,106,28,,,,,,,,,,,,,,,,,,,,,,,916.9671383999521,None,916.9671383999521,None,916.4667884999653,None,f,0.5444377000676468,916.9671383999521,None,,,,,,,,,,,,,t,001,2021_Jul_13_1502,toilet,2021.1.3,99.86986952249822,
0,0,4,-4,1.06,,,,,2,0,2,0,1,51,107,12,,,,,,,,,,,,,,,,,,,,,,,918.5281955999089,None,918.5281955999089,None,918.0278562000021,None,f,0.5353392999386415,918.5281955999089,None,,,,,,,,,,,,,t,001,2021_Jul_13_1502,toilet,2021.1.3,99.86986952249822,
0,0,-4,4,1.0,,,,,2,0,2,0,1,52,108,3,,,,,,,,,,,,,,,,,,,,,,,920.0793348998995,None,920.0793348998995,None,919.5789044999983,None,f,0.4080697000026703,920.0793348998995,None,,,,,,,,,,,,,t,001,2021_Jul_13_1502,toilet,2021.1.3,99.86986952249822,
180,180,-4,4,1.0,,,,,2,0,2,0,1,53,109,31,,,,,,,,,,,,,,,,,,,,,,,921.4902829999337,None,921.4902829999337,None,920.9899532999843,None,f,0.5012207999825478,921.4902829999337,None,,,,,,,,,,,,,t,001,2021_Jul_13_1502,toilet,2021.1.3,99.86986952249822,
180,0,-4,4,1.03,,,,,2,0,2,0,1,54,110,46,,,,,,,,,,,,,,,,,,,,,,,922.9912129999138,None,922.9912129999138,None,922.4908720999956,None,f,0.5683214999735355,922.9912129999138,None,,,,,,,,,,,,,t,001,2021_Jul_13_1502,toilet,2021.1.3,99.86986952249822,
0,180,-4,4,0.85,,,,,2,0,2,0,1,55,111,14,,,,,,,,,,,,,,,,,,,,,,,924.5622771999333,None,924.5622771999333,None,924.0619408999337,None,f,0.5492245999630541,924.5622771999333,None,,,,,,,,,,,,,t,001,2021_Jul_13_1502,toilet,2021.1.3,99.86986952249822,
,,,,,,,,,2,0,2,0,,,,,,,,,,,,,,,,,,,,,,,,,,,,,,,,,,,,,925.1327016999712,None,space,41.77067550003994,925.1327016999712,None,,,,,,,t,001,2021_Jul_13_1502,toilet,2021.1.3,99.86986952249822,
180,180,-4,4,0.85,,,,,3,0,3,0,0,0,0,28,,,,,,,,,,,,,,,,,966.9310548999347,None,space,0.996326900087297,966.9310548999347,None,968.9423648999073,None,968.9423648999073,None,968.4420274998993,None,f,0.5052650000434369,968.9423648999073,None,,,,,,,,,,,,,t,001,2021_Jul_13_1502,toilet,2021.1.3,99.86986952249822,
0,0,4,-4,1.03,,,,,3,0,3,0,0,1,1,11,,,,,,,,,,,,,,,,,,,,,,,970.463390699937,None,970.463390699937,None,969.9630550999427,None,f,0.45613599999342114,970.463390699937,None,,,,,,,,,,,,,t,001,2021_Jul_13_1502,toilet,2021.1.3,99.86986952249822,
180,180,4,-4,0.94,,,,,3,0,3,0,0,2,2,36,,,,,,,,,,,,,,,,,,,,,,,971.9344946999336,None,971.9344946999336,None,971.4341477999697,None,j,0.4730728999711573,971.9344946999336,None,,,,,,,,,,,,,t,001,2021_Jul_13_1502,toilet,2021.1.3,99.86986952249822,
180,180,-4,4,1.0,,,,,3,0,3,0,0,3,3,31,,,,,,,,,,,,,,,,,,,,,,,973.4254458999494,None,973.4254458999494,None,972.925145199988,None,f,0.3899665999924764,973.4254458999494,None,,,,,,,,,,,,,t,001,2021_Jul_13_1502,toilet,2021.1.3,99.86986952249822,
180,0,-4,4,1.15,,,,,3,0,3,0,0,4,4,48,,,,,,,,,,,,,,,,,,,,,,,974.8163426999236,None,974.8163426999236,None,974.316006799927,None,j,0.42321109992917627,974.8163426999236,None,,,,,,,,,,,,,t,001,2021_Jul_13_1502,toilet,2021.1.3,99.86986952249822,
180,180,-4,4,0.94,,,,,3,0,3,0,0,5,5,29,,,,,,,,,,,,,,,,,,,,,,,976.2473150999285,None,976.2473150999285,None,975.7469727999996,None,f,0.9762973999604583,976.2473150999285,None,,,,,,,,,,,,,t,001,2021_Jul_13_1502,toilet,2021.1.3,99.86986952249822,
180,0,4,-4,1.0,,,,,3,0,3,0,0,6,6,52,,,,,,,,,,,,,,,,,,,,,,,978.2386590999085,None,978.2386590999085,None,977.7384212999605,None,j,0.4571476000128314,978.2386590999085,None,,,,,,,,,,,,,t,001,2021_Jul_13_1502,toilet,2021.1.3,99.86986952249822,
0,180,-4,4,1.06,,,,,3,0,3,0,0,7,7,19,,,,,,,,,,,,,,,,,,,,,,,979.7097579999827,None,979.7097579999827,None,979.2093987999251,None,j,0.4096801000414416,979.7097579999827,None,,,,,,,,,,,,,t,001,2021_Jul_13_1502,toilet,2021.1.3,99.86986952249822,
0,0,4,-4,1.06,,,,,3,0,3,0,0,8,8,12,,,,,,,,,,,,,,,,,,,,,,,981.1306261999998,None,981.1306261999998,None,980.6303222998977,None,f,0.4768416000297293,981.1306261999998,None,,,,,,,,,,,,,t,001,2021_Jul_13_1502,toilet,2021.1.3,99.86986952249822,
180,180,-4,4,0.97,,,,,3,0,3,0,0,9,9,30,,,,,,,,,,,,,,,,,,,,,,,982.6116282999283,None,982.6116282999283,None,982.1112899999134,None,f,0.5318712999578565,982.6116282999283,None,,,,,,,,,,,,,t,001,2021_Jul_13_1502,toilet,2021.1.3,99.86986952249822,
180,0,4,-4,0.85,,,,,3,0,3,0,0,10,10,49,,,,,,,,,,,,,,,,,,,,,,,984.152671399992,None,984.152671399992,None,983.6523344999878,None,j,0.39880049997009337,984.152671399992,None,,,,,,,,,,,,,t,001,2021_Jul_13_1502,toilet,2021.1.3,99.86986952249822,
180,180,4,-4,1.0,,,,,3,0,3,0,0,11,11,38,,,,,,,,,,,,,,,,,,,,,,,985.5636341999052,None,985.5636341999052,None,985.0632990999147,None,f,0.47596439998596907,985.5636341999052,None,,,,,,,,,,,,,t,001,2021_Jul_13_1502,toilet,2021.1.3,99.86986952249822,
180,0,-4,4,1.06,,,,,3,0,3,0,0,12,12,47,,,,,,,,,,,,,,,,,,,,,,,987.0547346998937,None,987.0547346998937,None,986.5543107999256,None,f,1.272615300025791,987.0547346998937,None,,,,,,,,,,,,,t,001,2021_Jul_13_1502,toilet,2021.1.3,99.86986952249822,
0,180,-4,4,1.0,,,,,3,0,3,0,0,13,13,17,,,,,,,,,,,,,,,,,,,,,,,989.3361866999185,None,989.3361866999185,None,988.8358466998907,None,j,0.5751909000100568,989.3361866999185,None,,,,,,,,,,,,,t,001,2021_Jul_13_1502,toilet,2021.1.3,99.86986952249822,
0,180,4,-4,1.06,,,,,3,0,3,0,0,14,14,26,,,,,,,,,,,,,,,,,,,,,,,990.9172568999929,None,990.9172568999929,None,990.4169166999636,None,f,0.43425829999614507,990.9172568999929,None,,,,,,,,,,,,,t,001,2021_Jul_13_1502,toilet,2021.1.3,99.86986952249822,
180,180,-4,4,1.06,,,,,3,0,3,0,0,15,15,33,,,,,,,,,,,,,,,,,,,,,,,992.3682394999778,None,992.3682394999778,None,991.8678999999538,None,j,0.5992129000369459,992.3682394999778,None,,,,,,,,,,,,,t,001,2021_Jul_13_1502,toilet,2021.1.3,99.86986952249822,
0,180,4,-4,0.97,,,,,3,0,3,0,0,16,16,23,,,,,,,,,,,,,,,,,,,,,,,993.9794267999241,None,993.9794267999241,None,993.4789937998867,None,f,1.2280081999488175,993.9794267999241,None,,,,,,,,,,,,,t,001,2021_Jul_13_1502,toilet,2021.1.3,99.86986952249822,
180,0,-4,4,1.03,,,,,3,0,3,0,0,17,17,46,,,,,,,,,,,,,,,,,,,,,,,996.210846999893,None,996.210846999893,None,995.7105161999352,None,f,0.8527584000257775,996.210846999893,None,,,,,,,,,,,,,t,001,2021_Jul_13_1502,toilet,2021.1.3,99.86986952249822,
180,180,4,-4,0.85,,,,,3,0,3,0,0,18,18,35,,,,,,,,,,,,,,,,,,,,,,,998.0721496999031,None,998.0721496999031,None,997.5717760999687,None,j,0.6076281000860035,998.0721496999031,None,,,,,,,,,,,,,t,001,2021_Jul_13_1502,toilet,2021.1.3,99.86986952249822,
0,0,-4,4,0.85,,,,,3,0,3,0,0,19,19,0,,,,,,,,,,,,,,,,,,,,,,,999.6932107999455,None,999.6932107999455,None,999.1928759999573,None,f,0.5063044999260455,999.6932107999455,None,,,,,,,,,,,,,t,001,2021_Jul_13_1502,toilet,2021.1.3,99.86986952249822,
180,180,4,-4,1.03,,,,,3,0,3,0,0,20,20,39,,,,,,,,,,,,,,,,,,,,,,,1001.2142408998916,None,1001.2142408998916,None,1000.7139876999427,None,f,0.47329530003480613,1001.2142408998916,None,,,,,,,,,,,,,t,001,2021_Jul_13_1502,toilet,2021.1.3,99.86986952249822,
0,180,4,-4,1.03,,,,,3,0,3,0,0,21,21,25,,,,,,,,,,,,,,,,,,,,,,,1002.7052868999308,None,1002.7052868999308,None,1002.2049971999368,None,f,0.6943046000087634,1002.7052868999308,None,,,,,,,,,,,,,t,001,2021_Jul_13_1502,toilet,2021.1.3,99.86986952249822,
0,0,-4,4,1.06,,,,,3,0,3,0,0,22,22,5,,,,,,,,,,,,,,,,,,,,,,,1004.4064143999713,None,1004.4064143999713,None,1003.9060653999913,None,j,0.5290278000757098,1004.4064143999713,None,,,,,,,,,,,,,t,001,2021_Jul_13_1502,toilet,2021.1.3,99.86986952249822,
0,0,4,-4,0.85,,,,,3,0,3,0,0,23,23,7,,,,,,,,,,,,,,,,,,,,,,,1005.9374397998909,None,1005.9374397998909,None,1005.437101699994,None,j,0.43791380000766367,1005.9374397998909,None,,,,,,,,,,,,,t,001,2021_Jul_13_1502,toilet,2021.1.3,99.86986952249822,
0,180,4,-4,1.15,,,,,3,0,3,0,0,24,24,27,,,,,,,,,,,,,,,,,,,,,,,1007.3784166999394,None,1007.3784166999394,None,1006.8780762999086,None,f,0.5010026999516413,1007.3784166999394,None,,,,,,,,,,,,,t,001,2021_Jul_13_1502,toilet,2021.1.3,99.86986952249822,
0,0,-4,4,0.94,,,,,3,0,3,0,0,25,25,1,,,,,,,,,,,,,,,,,,,,,,,1008.8795230999822,None,1008.8795230999822,None,1008.3791038999334,None,f,0.7120568999089301,1008.8795230999822,None,,,,,,,,,,,,,t,001,2021_Jul_13_1502,toilet,2021.1.3,99.86986952249822,
180,180,4,-4,1.15,,,,,3,0,3,0,0,26,26,41,,,,,,,,,,,,,,,,,,,,,,,1010.6106166999089,None,1010.6106166999089,None,1010.1103095998988,None,f,0.4848331999965012,1010.6106166999089,None,,,,,,,,,,,,,t,001,2021_Jul_13_1502,toilet,2021.1.3,99.86986952249822,
0,180,4,-4,1.0,,,,,3,0,3,0,0,27,27,24,,,,,,,,,,,,,,,,,,,,,,,1012.101622999995,None,1012.101622999995,None,1011.6012796999421,None,f,0.6260049999691546,1012.101622999995,None,,,,,,,,,,,,,t,001,2021_Jul_13_1502,toilet,2021.1.3,99.86986952249822,
180,0,-4,4,0.85,,,,,3,0,3,0,0,28,28,42,,,,,,,,,,,,,,,,,,,,,,,1013.7427301999414,None,1013.7427301999414,None,1013.2423903999152,None,f,0.56867109995801,1013.7427301999414,None,,,,,,,,,,,,,t,001,2021_Jul_13_1502,toilet,2021.1.3,99.86986952249822,
180,0,4,-4,0.97,,,,,3,0,3,0,0,29,29,51,,,,,,,,,,,,,,,,,,,,,,,1015.3137956999708,None,1015.3137956999708,None,1014.8134534999263,None,j,0.4376624000724405,1015.3137956999708,None,,,,,,,,,,,,,t,001,2021_Jul_13_1502,toilet,2021.1.3,99.86986952249822,
0,0,-4,4,1.0,,,,,3,0,3,0,0,30,30,3,,,,,,,,,,,,,,,,,,,,,,,1016.7648644999135,None,1016.7648644999135,None,1016.2645332999527,None,j,0.5544859999790788,1016.7648644999135,None,,,,,,,,,,,,,t,001,2021_Jul_13_1502,toilet,2021.1.3,99.86986952249822,
0,0,4,-4,0.94,,,,,3,0,3,0,0,31,31,8,,,,,,,,,,,,,,,,,,,,,,,1018.325844499981,None,1018.325844499981,None,1017.8255019999342,None,j,0.6575107000535354,1018.325844499981,None,,,,,,,,,,,,,t,001,2021_Jul_13_1502,toilet,2021.1.3,99.86986952249822,
180,180,-4,4,1.15,,,,,3,0,3,0,0,32,32,34,,,,,,,,,,,,,,,,,,,,,,,1019.9869580999948,None,1019.9869580999948,None,1019.4866284999298,None,j,0.48457450000569224,1019.9869580999948,None,,,,,,,,,,,,,t,001,2021_Jul_13_1502,toilet,2021.1.3,99.86986952249822,
0,180,-4,4,0.97,,,,,3,0,3,0,0,33,33,16,,,,,,,,,,,,,,,,,,,,,,,1021.4879827999976,None,1021.4879827999976,None,1020.9876425999682,None,j,0.35943000006955117,1021.4879827999976,None,,,,,,,,,,,,,t,001,2021_Jul_13_1502,toilet,2021.1.3,99.86986952249822,
0,0,-4,4,1.03,,,,,3,0,3,0,0,34,34,4,,,,,,,,,,,,,,,,,,,,,,,1022.8589150999906,None,1022.8589150999906,None,1022.358570399927,None,f,0.3164519000565633,1022.8589150999906,None,,,,,,,,,,,,,t,001,2021_Jul_13_1502,toilet,2021.1.3,99.86986952249822,
0,0,-4,4,0.97,,,,,3,0,3,0,0,35,35,2,,,,,,,,,,,,,,,,,,,,,,,1024.17989759997,None,1024.17989759997,None,1023.6795502998866,None,f,0.46744849998503923,1024.17989759997,None,,,,,,,,,,,,,t,001,2021_Jul_13_1502,toilet,2021.1.3,99.86986952249822,
0,180,-4,4,1.15,,,,,3,0,3,0,0,36,36,20,,,,,,,,,,,,,,,,,,,,,,,1025.6508043999784,None,1025.6508043999784,None,1025.1505037999013,None,j,0.42056880006566644,1025.6508043999784,None,,,,,,,,,,,,,t,001,2021_Jul_13_1502,toilet,2021.1.3,99.86986952249822,
180,0,4,-4,1.06,,,,,3,0,3,0,0,37,37,54,,,,,,,,,,,,,,,,,,,,,,,1027.0717811998911,None,1027.0717811998911,None,1026.5714421999874,None,f,0.35957169998437166,1027.0717811998911,None,,,,,,,,,,,,,t,001,2021_Jul_13_1502,toilet,2021.1.3,99.86986952249822,
0,180,4,-4,0.85,,,,,3,0,3,0,0,38,38,21,,,,,,,,,,,,,,,,,,,,,,,1028.4326904999325,None,1028.4326904999325,None,1027.9323563999496,None,j,0.5027427999302745,1028.4326904999325,None,,,,,,,,,,,,,t,001,2021_Jul_13_1502,toilet,2021.1.3,99.86986952249822,
180,180,4,-4,1.06,,,,,3,0,3,0,0,39,39,40,,,,,,,,,,,,,,,,,,,,,,,1029.9538047999376,None,1029.9538047999376,None,1029.4533816999756,None,f,0.9816190999699757,1029.9538047999376,None,,,,,,,,,,,,,t,001,2021_Jul_13_1502,toilet,2021.1.3,99.86986952249822,
0,0,4,-4,1.0,,,,,3,0,3,0,0,40,40,10,,,,,,,,,,,,,,,,,,,,,,,1031.9451658999315,None,1031.9451658999315,None,1031.444829099928,None,j,0.9901866000145674,1031.9451658999315,None,,,,,,,,,,,,,t,001,2021_Jul_13_1502,toilet,2021.1.3,99.86986952249822,
180,0,4,-4,1.03,,,,,3,0,3,0,0,41,41,53,,,,,,,,,,,,,,,,,,,,,,,1033.936426899978,None,1033.936426899978,None,1033.4360866999486,None,f,0.8230102000525221,1033.936426899978,None,,,,,,,,,,,,,t,001,2021_Jul_13_1502,toilet,2021.1.3,99.86986952249822,
180,0,4,-4,1.15,,,,,3,0,3,0,0,42,42,55,,,,,,,,,,,,,,,,,,,,,,,1035.7676672999514,None,1035.7676672999514,None,1035.267330099945,None,f,0.5597847000462934,1035.7676672999514,None,,,,,,,,,,,,,t,001,2021_Jul_13_1502,toilet,2021.1.3,99.86986952249822,
180,180,-4,4,1.03,,,,,3,0,3,0,0,43,43,32,,,,,,,,,,,,,,,,,,,,,,,1037.3388252999866,None,1037.3388252999866,None,1036.8383884999203,None,j,0.49273910000920296,1037.3388252999866,None,,,,,,,,,,,,,t,001,2021_Jul_13_1502,toilet,2021.1.3,99.86986952249822,
180,0,-4,4,0.97,,,,,3,0,3,0,0,44,44,44,,,,,,,,,,,,,,,,,,,,,,,1038.8497919999063,None,1038.8497919999063,None,1038.3495104999747,None,f,0.4696248999098316,1038.8497919999063,None,,,,,,,,,,,,,t,001,2021_Jul_13_1502,toilet,2021.1.3,99.86986952249822,
0,180,4,-4,0.94,,,,,3,0,3,0,0,45,45,22,,,,,,,,,,,,,,,,,,,,,,,1040.3307709998917,None,1040.3307709998917,None,1039.8304375999141,None,j,0.4927085000090301,1040.3307709998917,None,,,,,,,,,,,,,t,001,2021_Jul_13_1502,toilet,2021.1.3,99.86986952249822,
0,180,-4,4,1.03,,,,,3,0,3,0,0,46,46,18,,,,,,,,,,,,,,,,,,,,,,,1041.8317783999955,None,1041.8317783999955,None,1041.3314377999632,None,j,0.36763990006875247,1041.8317783999955,None,,,,,,,,,,,,,t,001,2021_Jul_13_1502,toilet,2021.1.3,99.86986952249822,
180,0,-4,4,0.94,,,,,3,0,3,0,0,47,47,43,,,,,,,,,,,,,,,,,,,,,,,1043.202709199977,None,1043.202709199977,None,1042.702363499906,None,f,0.8207533999811858,1043.202709199977,None,,,,,,,,,,,,,t,001,2021_Jul_13_1502,toilet,2021.1.3,99.86986952249822,
180,180,4,-4,0.97,,,,,3,0,3,0,0,48,48,37,,,,,,,,,,,,,,,,,,,,,,,1045.0339473999338,None,1045.0339473999338,None,1044.5336154999677,None,j,0.525437599979341,1045.0339473999338,None,,,,,,,,,,,,,t,001,2021_Jul_13_1502,toilet,2021.1.3,99.86986952249822,
0,0,-4,4,1.15,,,,,3,0,3,0,0,49,49,6,,,,,,,,,,,,,,,,,,,,,,,1046.5650823999895,None,1046.5650823999895,None,1046.0647316999966,None,j,0.5302399999927729,1046.5650823999895,None,,,,,,,,,,,,,t,001,2021_Jul_13_1502,toilet,2021.1.3,99.86986952249822,
