ori_st,ori_pr,xpos_st,xpos_pr,size,trials_3.thisRepN,trials_3.thisTrialN,trials_3.thisN,trials_3.thisIndex,trials_2.thisRepN,trials_2.thisTrialN,trials_2.thisN,trials_2.thisIndex,trials.thisRepN,trials.thisTrialN,trials.thisN,trials.thisIndex,wel_pra.started,wel_pra.stopped,resp_wel.keys,resp_wel.rt,resp_wel.started,resp_wel.stopped,standard_pra.started,standard_pra.stopped,prove_pra.started,prove_pra.stopped,fixation.started,fixation.stopped,resp_pra.keys,resp_pra.rt,resp_pra.started,resp_pra.stopped,instr.started,instr.stopped,key_resp_2.keys,key_resp_2.rt,key_resp_2.started,key_resp_2.stopped,standard.started,standard.stopped,probe.started,probe.stopped,text.started,text.stopped,resp.keys,resp.rt,resp.started,resp.stopped,text_2.started,text_2.stopped,key_resp.keys,key_resp.rt,key_resp.started,key_resp.stopped,text_3.started,text_3.stopped,key_resp_3.keys,key_resp_3.rt,key_resp_3.started,key_resp_3.stopped,participant,session,date,expName,psychopyVersion,frameRate,
,,,,,,,,,,,,,,,,,18.98447880000458,None,space,152.96525040001143,18.98447880000458,None,,,,,,,,,,,,,,,,,,,,,,,,,,,,,,,,,,,,,,,q,001,2021_Jul_08_1644,toilet,2021.1.3,99.94842662058429,
0,180,4,-4,1.15,0,0,0,7,,,,,,,,,,,,,,,172.9688826999918,None,172.9688826999918,None,172.4685315999959,None,f,2.3250629999965895,172.9688826999918,None,,,,,,,,,,,,,,,,,,,,,,,,,,,,,q,001,2021_Jul_08_1644,toilet,2021.1.3,99.94842662058429,
0,0,4,-4,0.85,0,1,1,1,,,,,,,,,,,,,,,176.3011419000104,None,176.3011419000104,None,175.80079760000808,None,j,1.3445194000087213,176.3011419000104,None,,,,,,,,,,,,,,,,,,,,,,,,,,,,,q,001,2021_Jul_08_1644,toilet,2021.1.3,99.94842662058429,
0,180,4,-4,0.85,0,2,2,5,,,,,,,,,,,,,,,178.65281390000018,None,178.65281390000018,None,178.15248650001013,None,j,1.1048562999931164,178.65281390000018,None,,,,,,,,,,,,,,,,,,,,,,,,,,,,,q,001,2021_Jul_08_1644,toilet,2021.1.3,99.94842662058429,
0,180,-4,4,0.85,0,3,3,4,,,,,,,,,,,,,,,180.76416180000524,None,180.76416180000524,None,180.26382280001417,None,f,0.7694923999952152,180.76416180000524,None,,,,,,,,,,,,,,,,,,,,,,,,,,,,,q,001,2021_Jul_08_1644,toilet,2021.1.3,99.94842662058429,
180,180,-4,4,0.85,0,4,4,9,,,,,,,,,,,,,,,182.5353627000004,None,182.5353627000004,None,182.03502290000324,None,f,0.7904777000076137,182.5353627000004,None,,,,,,,,,,,,,,,,,,,,,,,,,,,,,q,001,2021_Jul_08_1644,toilet,2021.1.3,99.94842662058429,
0,180,-4,4,1.15,0,5,5,6,,,,,,,,,,,,,,,184.33659690001514,None,184.33659690001514,None,183.83624520001467,None,j,0.605284399993252,184.33659690001514,None,,,,,,,,,,,,,,,,,,,,,,,,,,,,,q,001,2021_Jul_08_1644,toilet,2021.1.3,99.94842662058429,
180,0,-4,4,1.15,0,6,6,15,,,,,,,,,,,,,,,185.95777100001578,None,185.95777100001578,None,185.45734180000727,None,j,0.5359719000116456,185.95777100001578,None,,,,,,,,,,,,,,,,,,,,,,,,,,,,,q,001,2021_Jul_08_1644,toilet,2021.1.3,99.94842662058429,
180,0,-4,4,0.85,0,7,7,13,,,,,,,,,,,,,,,187.5087346000073,None,187.5087346000073,None,187.00840019999305,None,f,0.456997200002661,187.5087346000073,None,,,,,,,,,,,,,,,,,,,,,,,,,,,,,q,001,2021_Jul_08_1644,toilet,2021.1.3,99.94842662058429,
180,180,-4,4,1.15,0,8,8,11,,,,,,,,,,,,,,,188.969722800015,None,188.969722800015,None,188.4693869999901,None,j,1.8120452000002842,188.969722800015,None,,,,,,,,,,,,,,,,,,,,,,,,,,,,,q,001,2021_Jul_08_1644,toilet,2021.1.3,99.94842662058429,
180,180,-4,4,1.15,0,9,9,10,,,,,,,,,,,,,,,191.791658800008,None,191.791658800008,None,191.29130260000238,None,j,0.81425239998498,191.791658800008,None,,,,,,,,,,,,,,,,,,,,,,,,,,,,,q,001,2021_Jul_08_1644,toilet,2021.1.3,99.94842662058429,
0,0,-4,4,1.15,0,10,10,2,,,,,,,,,,,,,,,193.62291679999908,None,193.62291679999908,None,193.12263399999938,None,j,0.6788257000152953,193.62291679999908,None,,,,,,,,,,,,,,,,,,,,,,,,,,,,,q,001,2021_Jul_08_1644,toilet,2021.1.3,99.94842662058429,
180,0,-4,4,0.85,0,11,11,12,,,,,,,,,,,,,,,195.30401990000973,None,195.30401990000973,None,194.80368250000174,None,f,0.45363929998711683,195.30401990000973,None,,,,,,,,,,,,,,,,,,,,,,,,,,,,,q,001,2021_Jul_08_1644,toilet,2021.1.3,99.94842662058429,
0,0,4,-4,1.15,0,12,12,3,,,,,,,,,,,,,,,196.76500859999214,None,196.76500859999214,None,196.26467299999786,None,f,0.5768239999888465,196.76500859999214,None,,,,,,,,,,,,,,,,,,,,,,,,,,,,,q,001,2021_Jul_08_1644,toilet,2021.1.3,99.94842662058429,
0,0,-4,4,0.85,0,13,13,0,,,,,,,,,,,,,,,198.3560884000035,None,198.3560884000035,None,197.8557484000048,None,f,0.40957089999574237,198.3560884000035,None,,,,,,,,,,,,,,,,,,,,,,,,,,,,,q,001,2021_Jul_08_1644,toilet,2021.1.3,99.94842662058429,
180,0,-4,4,1.15,0,14,14,14,,,,,,,,,,,,,,,199.76714360000915,None,199.76714360000915,None,199.26670770000783,None,j,0.5346623999939766,199.76714360000915,None,,,,,,,,,,,,,,,,,,,,,,,,,,,,,q,001,2021_Jul_08_1644,toilet,2021.1.3,99.94842662058429,
180,180,-4,4,0.85,0,15,15,8,,,,,,,,,,,,,,,201.31810000000405,None,201.31810000000405,None,200.8178465999954,None,f,0.42365919999429025,201.31810000000405,None,,,,,,,,,,,,,,,,,,,,,,,,,,,,,q,001,2021_Jul_08_1644,toilet,2021.1.3,99.94842662058429,
0,180,-4,4,0.94,,,,,0,0,0,0,0,0,0,15,,,,,,,,,,,,,,,,,201.76840329999686,None,space,65.98926869998104,201.76840329999686,None,268.77386059999117,None,268.77386059999117,None,268.27350830001524,None,f,0.7277767000196036,268.77386059999117,None,,,,,,,,,,,,,q,001,2021_Jul_08_1644,toilet,2021.1.3,99.94842662058429,
180,0,4,-4,1.03,,,,,0,0,0,0,0,1,1,53,,,,,,,,,,,,,,,,,,,,,,,270.50500979999197,None,270.50500979999197,None,270.00468260000343,None,j,0.6127053999807686,270.50500979999197,None,,,,,,,,,,,,,q,001,2021_Jul_08_1644,toilet,2021.1.3,99.94842662058429,
0,0,4,-4,1.06,,,,,0,0,0,0,0,2,2,12,,,,,,,,,,,,,,,,,,,,,,,272.14613129998907,None,272.14613129998907,None,271.64578459999757,None,j,0.8916362999880221,272.14613129998907,None,,,,,,,,,,,,,q,001,2021_Jul_08_1644,toilet,2021.1.3,99.94842662058429,
0,0,-4,4,1.0,,,,,0,0,0,0,0,3,3,3,,,,,,,,,,,,,,,,,,,,,,,274.0374855000118,None,274.0374855000118,None,273.53716559999157,None,j,0.6482672000129241,274.0374855000118,None,,,,,,,,,,,,,q,001,2021_Jul_08_1644,toilet,2021.1.3,99.94842662058429,
0,0,4,-4,0.85,,,,,0,0,0,0,0,4,4,7,,,,,,,,,,,,,,,,,,,,,,,275.69851260000723,None,275.69851260000723,None,275.1981999000127,None,j,0.6191119000141043,275.69851260000723,None,,,,,,,,,,,,,q,001,2021_Jul_08_1644,toilet,2021.1.3,99.94842662058429,
0,180,-4,4,1.03,,,,,0,0,0,0,0,5,5,18,,,,,,,,,,,,,,,,,,,,,,,277.31963429998723,None,277.31963429998723,None,276.81929949999903,None,j,0.9501319999981206,277.31963429998723,None,,,,,,,,,,,,,q,001,2021_Jul_08_1644,toilet,2021.1.3,99.94842662058429,
180,180,4,-4,1.03,,,,,0,0,0,0,0,6,6,39,,,,,,,,,,,,,,,,,,,,,,,279.2809638000035,None,279.2809638000035,None,278.7806397000095,None,f,0.8446700000204146,279.2809638000035,None,,,,,,,,,,,,,q,001,2021_Jul_08_1644,toilet,2021.1.3,99.94842662058429,
180,0,-4,4,1.0,,,,,0,0,0,0,0,7,7,45,,,,,,,,,,,,,,,,,,,,,,,281.13229800001136,None,281.13229800001136,None,280.6319622999872,None,f,1.361315400019521,281.13229800001136,None,,,,,,,,,,,,,q,001,2021_Jul_08_1644,toilet,2021.1.3,99.94842662058429,
180,0,4,-4,0.97,,,,,0,0,0,0,0,8,8,51,,,,,,,,,,,,,,,,,,,,,,,283.49384939999436,None,283.49384939999436,None,282.99348510001437,None,f,1.0798813999863341,283.49384939999436,None,,,,,,,,,,,,,q,001,2021_Jul_08_1644,toilet,2021.1.3,99.94842662058429,
0,180,4,-4,1.0,,,,,0,0,0,0,0,9,9,24,,,,,,,,,,,,,,,,,,,,,,,285.59524480000255,None,285.59524480000255,None,285.0949031999917,None,f,1.170489300013287,285.59524480000255,None,,,,,,,,,,,,,q,001,2021_Jul_08_1644,toilet,2021.1.3,99.94842662058429,
0,180,-4,4,1.06,,,,,0,0,0,0,0,10,10,19,,,,,,,,,,,,,,,,,,,,,,,287.77672449999955,None,287.77672449999955,None,287.2764618000074,None,j,0.9570117000257596,287.77672449999955,None,,,,,,,,,,,,,q,001,2021_Jul_08_1644,toilet,2021.1.3,99.94842662058429,
180,180,4,-4,1.15,,,,,0,0,0,0,0,11,11,41,,,,,,,,,,,,,,,,,,,,,,,289.748079699988,None,289.748079699988,None,289.24772099999245,None,f,0.969503700005589,289.748079699988,None,,,,,,,,,,,,,q,001,2021_Jul_08_1644,toilet,2021.1.3,99.94842662058429,
0,180,-4,4,0.85,,,,,0,0,0,0,0,12,12,14,,,,,,,,,,,,,,,,,,,,,,,291.71939899999416,None,291.71939899999416,None,291.21905929999775,None,f,0.9823313999804668,291.71939899999416,None,,,,,,,,,,,,,q,001,2021_Jul_08_1644,toilet,2021.1.3,99.94842662058429,
180,0,-4,4,1.03,,,,,0,0,0,0,0,13,13,46,,,,,,,,,,,,,,,,,,,,,,,293.7107515000098,None,293.7107515000098,None,293.2104099999997,None,j,0.9590545000100974,293.7107515000098,None,,,,,,,,,,,,,q,001,2021_Jul_08_1644,toilet,2021.1.3,99.94842662058429,
0,0,-4,4,0.94,,,,,0,0,0,0,0,14,14,1,,,,,,,,,,,,,,,,,,,,,,,295.68216419999953,None,295.68216419999953,None,295.1817463999905,None,f,1.1636509999807458,295.68216419999953,None,,,,,,,,,,,,,q,001,2021_Jul_08_1644,toilet,2021.1.3,99.94842662058429,
180,180,-4,4,1.15,,,,,0,0,0,0,0,15,15,34,,,,,,,,,,,,,,,,,,,,,,,297.8635673999961,None,297.8635673999961,None,297.36322910001036,None,j,0.8380758999846876,297.8635673999961,None,,,,,,,,,,,,,q,001,2021_Jul_08_1644,toilet,2021.1.3,99.94842662058429,
0,0,-4,4,0.85,,,,,0,0,0,0,0,16,16,0,,,,,,,,,,,,,,,,,,,,,,,299.70481260001543,None,299.70481260001543,None,299.20447880000575,None,f,0.7407788999844342,299.70481260001543,None,,,,,,,,,,,,,q,001,2021_Jul_08_1644,toilet,2021.1.3,99.94842662058429,
0,180,4,-4,1.15,,,,,0,0,0,0,0,17,17,27,,,,,,,,,,,,,,,,,,,,,,,301.44599229999585,None,301.44599229999585,None,300.9456530000025,None,f,0.7757738000073005,301.44599229999585,None,,,,,,,,,,,,,q,001,2021_Jul_08_1644,toilet,2021.1.3,99.94842662058429,
0,0,4,-4,1.0,,,,,0,0,0,0,0,18,18,10,,,,,,,,,,,,,,,,,,,,,,,303.2372900999908,None,303.2372900999908,None,302.7368894999963,None,f,0.9363642999960575,303.2372900999908,None,,,,,,,,,,,,,q,001,2021_Jul_08_1644,toilet,2021.1.3,99.94842662058429,
180,0,4,-4,0.85,,,,,0,0,0,0,0,19,19,49,,,,,,,,,,,,,,,,,,,,,,,305.17852670000866,None,305.17852670000866,None,304.6781884999946,None,j,0.7711969999945723,305.17852670000866,None,,,,,,,,,,,,,q,001,2021_Jul_08_1644,toilet,2021.1.3,99.94842662058429,
0,0,4,-4,0.97,,,,,0,0,0,0,0,20,20,9,,,,,,,,,,,,,,,,,,,,,,,306.9497272000008,None,306.9497272000008,None,306.44938679999905,None,f,0.808062099997187,306.9497272000008,None,,,,,,,,,,,,,q,001,2021_Jul_08_1644,toilet,2021.1.3,99.94842662058429,
180,180,4,-4,1.0,,,,,0,0,0,0,0,21,21,38,,,,,,,,,,,,,,,,,,,,,,,308.7709625000134,None,308.7709625000134,None,308.27062550000846,None,j,0.8268090999918059,308.7709625000134,None,,,,,,,,,,,,,q,001,2021_Jul_08_1644,toilet,2021.1.3,99.94842662058429,
0,0,-4,4,0.97,,,,,0,0,0,0,0,22,22,2,,,,,,,,,,,,,,,,,,,,,,,310.61229690001346,None,310.61229690001346,None,310.1119647999876,None,j,0.8254923000058625,310.61229690001346,None,,,,,,,,,,,,,q,001,2021_Jul_08_1644,toilet,2021.1.3,99.94842662058429,
180,0,-4,4,1.06,,,,,0,0,0,0,0,23,23,47,,,,,,,,,,,,,,,,,,,,,,,312.45345969998743,None,312.45345969998743,None,311.953121700004,None,j,0.7602583999978378,312.45345969998743,None,,,,,,,,,,,,,q,001,2021_Jul_08_1644,toilet,2021.1.3,99.94842662058429,
180,180,-4,4,1.0,,,,,0,0,0,0,0,24,24,31,,,,,,,,,,,,,,,,,,,,,,,314.2146538000088,None,314.2146538000088,None,313.71431350000785,None,j,0.9190491999906953,314.2146538000088,None,,,,,,,,,,,,,q,001,2021_Jul_08_1644,toilet,2021.1.3,99.94842662058429,
0,180,4,-4,0.85,,,,,0,0,0,0,0,25,25,21,,,,,,,,,,,,,,,,,,,,,,,316.14596369999344,None,316.14596369999344,None,315.64562009999645,None,j,0.7956686999823432,316.14596369999344,None,,,,,,,,,,,,,q,001,2021_Jul_08_1644,toilet,2021.1.3,99.94842662058429,
180,180,4,-4,1.06,,,,,0,0,0,0,0,26,26,40,,,,,,,,,,,,,,,,,,,,,,,317.9472639999876,None,317.9472639999876,None,317.44691930001136,None,f,0.9464707000006456,317.9472639999876,None,,,,,,,,,,,,,q,001,2021_Jul_08_1644,toilet,2021.1.3,99.94842662058429,
0,0,4,-4,1.03,,,,,0,0,0,0,0,27,27,11,,,,,,,,,,,,,,,,,,,,,,,319.9085120999953,None,319.9085120999953,None,319.40817640000023,None,f,0.6970940999744926,319.9085120999953,None,,,,,,,,,,,,,q,001,2021_Jul_08_1644,toilet,2021.1.3,99.94842662058429,
0,180,-4,4,0.97,,,,,0,0,0,0,0,28,28,16,,,,,,,,,,,,,,,,,,,,,,,321.6096763999958,None,321.6096763999958,None,321.10932489999686,None,j,0.9800150999799371,321.6096763999958,None,,,,,,,,,,,,,q,001,2021_Jul_08_1644,toilet,2021.1.3,99.94842662058429,
0,180,4,-4,0.94,,,,,0,0,0,0,0,29,29,22,,,,,,,,,,,,,,,,,,,,,,,323.6010177000135,None,323.6010177000135,None,323.10067829999025,None,j,0.8927574999979697,323.6010177000135,None,,,,,,,,,,,,,q,001,2021_Jul_08_1644,toilet,2021.1.3,99.94842662058429,
0,180,4,-4,0.97,,,,,0,0,0,0,0,30,30,23,,,,,,,,,,,,,,,,,,,,,,,325.5123945999949,None,325.5123945999949,None,325.0119715000037,None,f,1.2534099000040442,325.5123945999949,None,,,,,,,,,,,,,q,001,2021_Jul_08_1644,toilet,2021.1.3,99.94842662058429,
180,180,-4,4,0.94,,,,,0,0,0,0,0,31,31,29,,,,,,,,,,,,,,,,,,,,,,,327.7738532999938,None,327.7738532999938,None,327.27350959999603,None,f,1.0397110999911092,327.7738532999938,None,,,,,,,,,,,,,q,001,2021_Jul_08_1644,toilet,2021.1.3,99.94842662058429,
180,0,4,-4,1.06,,,,,0,0,0,0,0,32,32,54,,,,,,,,,,,,,,,,,,,,,,,329.815233500005,None,329.815233500005,None,329.3148898000072,None,f,0.9984732000157237,329.815233500005,None,,,,,,,,,,,,,q,001,2021_Jul_08_1644,toilet,2021.1.3,99.94842662058429,
0,180,4,-4,1.03,,,,,0,0,0,0,0,33,33,25,,,,,,,,,,,,,,,,,,,,,,,331.8266278000083,None,331.8266278000083,None,331.3262645000068,None,f,0.9874081999878399,331.8266278000083,None,,,,,,,,,,,,,q,001,2021_Jul_08_1644,toilet,2021.1.3,99.94842662058429,
180,0,-4,4,0.85,,,,,0,0,0,0,0,34,34,42,,,,,,,,,,,,,,,,,,,,,,,333.82797300000675,None,333.82797300000675,None,333.32770630001323,None,f,0.7937216999998782,333.82797300000675,None,,,,,,,,,,,,,q,001,2021_Jul_08_1644,toilet,2021.1.3,99.94842662058429,
180,0,4,-4,0.94,,,,,0,0,0,0,0,35,35,50,,,,,,,,,,,,,,,,,,,,,,,335.6292017000087,None,335.6292017000087,None,335.1288377000019,None,j,0.832573699997738,335.6292017000087,None,,,,,,,,,,,,,q,001,2021_Jul_08_1644,toilet,2021.1.3,99.94842662058429,
0,0,-4,4,1.15,,,,,0,0,0,0,0,36,36,6,,,,,,,,,,,,,,,,,,,,,,,337.4804296999937,None,337.4804296999937,None,336.9800881000119,None,j,0.8213176999997813,337.4804296999937,None,,,,,,,,,,,,,q,001,2021_Jul_08_1644,toilet,2021.1.3,99.94842662058429,
0,180,-4,4,1.15,,,,,0,0,0,0,0,37,37,20,,,,,,,,,,,,,,,,,,,,,,,339.31167610001285,None,339.31167610001285,None,338.8113516999874,None,j,1.7739422000013292,339.31167610001285,None,,,,,,,,,,,,,q,001,2021_Jul_08_1644,toilet,2021.1.3,99.94842662058429,
0,0,-4,4,1.06,,,,,0,0,0,0,0,38,38,5,,,,,,,,,,,,,,,,,,,,,,,342.1035633000138,None,342.1035633000138,None,341.6031981999986,None,j,1.3180289999872912,342.1035633000138,None,,,,,,,,,,,,,q,001,2021_Jul_08_1644,toilet,2021.1.3,99.94842662058429,
180,180,-4,4,1.06,,,,,0,0,0,0,0,39,39,33,,,,,,,,,,,,,,,,,,,,,,,344.42513250000775,None,344.42513250000775,None,343.92479869999806,None,j,1.0767481999937445,344.42513250000775,None,,,,,,,,,,,,,q,001,2021_Jul_08_1644,toilet,2021.1.3,99.94842662058429,
180,180,-4,4,0.97,,,,,0,0,0,0,0,40,40,30,,,,,,,,,,,,,,,,,,,,,,,346.51667089998955,None,346.51667089998955,None,346.01621709999745,None,f,0.9530696999863721,346.51667089998955,None,,,,,,,,,,,,,q,001,2021_Jul_08_1644,toilet,2021.1.3,99.94842662058429,
180,0,4,-4,1.15,,,,,0,0,0,0,0,41,41,55,,,,,,,,,,,,,,,,,,,,,,,348.48792590000085,None,348.48792590000085,None,347.98763789999066,None,f,0.7736933999985922,348.48792590000085,None,,,,,,,,,,,,,q,001,2021_Jul_08_1644,toilet,2021.1.3,99.94842662058429,
0,0,4,-4,1.15,,,,,0,0,0,0,0,42,42,13,,,,,,,,,,,,,,,,,,,,,,,350.269103300001,None,350.269103300001,None,349.768759700004,None,f,0.7525803000025917,350.269103300001,None,,,,,,,,,,,,,q,001,2021_Jul_08_1644,toilet,2021.1.3,99.94842662058429,
180,0,-4,4,1.15,,,,,0,0,0,0,0,43,43,48,,,,,,,,,,,,,,,,,,,,,,,352.04030299998703,None,352.04030299998703,None,351.53996640001424,None,j,0.6934562999813352,352.04030299998703,None,,,,,,,,,,,,,q,001,2021_Jul_08_1644,toilet,2021.1.3,99.94842662058429,
180,180,4,-4,0.94,,,,,0,0,0,0,0,44,44,36,,,,,,,,,,,,,,,,,,,,,,,353.7614687999885,None,353.7614687999885,None,353.2611337999988,None,j,0.7963019000017084,353.7614687999885,None,,,,,,,,,,,,,q,001,2021_Jul_08_1644,toilet,2021.1.3,99.94842662058429,
0,180,4,-4,1.06,,,,,0,0,0,0,0,45,45,26,,,,,,,,,,,,,,,,,,,,,,,355.57271149998996,None,355.57271149998996,None,355.0724509000138,None,f,0.6330632999888621,355.57271149998996,None,,,,,,,,,,,,,q,001,2021_Jul_08_1644,toilet,2021.1.3,99.94842662058429,
180,0,-4,4,0.94,,,,,0,0,0,0,0,46,46,43,,,,,,,,,,,,,,,,,,,,,,,357.2138074999966,None,357.2138074999966,None,356.71347779998905,None,f,0.7838724999746773,357.2138074999966,None,,,,,,,,,,,,,q,001,2021_Jul_08_1644,toilet,2021.1.3,99.94842662058429,
180,0,-4,4,0.97,,,,,0,0,0,0,0,47,47,44,,,,,,,,,,,,,,,,,,,,,,,359.0050208999892,None,359.0050208999892,None,358.5046842000156,None,f,0.9767876999976579,359.0050208999892,None,,,,,,,,,,,,,q,001,2021_Jul_08_1644,toilet,2021.1.3,99.94842662058429,
180,0,4,-4,1.0,,,,,0,0,0,0,0,48,48,52,,,,,,,,,,,,,,,,,,,,,,,361.00637389998883,None,361.00637389998883,None,360.50604529998964,None,j,0.7833998999849427,361.00637389998883,None,,,,,,,,,,,,,q,001,2021_Jul_08_1644,toilet,2021.1.3,99.94842662058429,
180,180,-4,4,1.03,,,,,0,0,0,0,0,49,49,32,,,,,,,,,,,,,,,,,,,,,,,362.80760790000204,None,362.80760790000204,None,362.3073451000091,None,j,0.9660417000122834,362.80760790000204,None,,,,,,,,,,,,,q,001,2021_Jul_08_1644,toilet,2021.1.3,99.94842662058429,
180,180,4,-4,0.97,,,,,0,0,0,0,0,50,50,37,,,,,,,,,,,,,,,,,,,,,,,364.77893969998695,None,364.77893969998695,None,364.2785998999898,None,j,0.75464679999277,364.77893969998695,None,,,,,,,,,,,,,q,001,2021_Jul_08_1644,toilet,2021.1.3,99.94842662058429,
180,180,4,-4,0.85,,,,,0,0,0,0,0,51,51,35,,,,,,,,,,,,,,,,,,,,,,,366.5401390999905,None,366.5401390999905,None,366.0397995999956,None,j,0.8015809000062291,366.5401390999905,None,,,,,,,,,,,,,q,001,2021_Jul_08_1644,toilet,2021.1.3,99.94842662058429,
0,0,4,-4,0.94,,,,,0,0,0,0,0,52,52,8,,,,,,,,,,,,,,,,,,,,,,,368.35139570001047,None,368.35139570001047,None,367.85102550001466,None,j,0.8623589999915566,368.35139570001047,None,,,,,,,,,,,,,q,001,2021_Jul_08_1644,toilet,2021.1.3,99.94842662058429,
0,0,-4,4,1.03,,,,,0,0,0,0,0,53,53,4,,,,,,,,,,,,,,,,,,,,,,,370.2228030000115,None,370.2228030000115,None,369.72236740001244,None,j,0.8629429000138771,370.2228030000115,None,,,,,,,,,,,,,q,001,2021_Jul_08_1644,toilet,2021.1.3,99.94842662058429,
0,180,-4,4,1.0,,,,,0,0,0,0,0,54,54,17,,,,,,,,,,,,,,,,,,,,,,,372.09389970000484,None,372.09389970000484,None,371.5935623999976,None,j,0.9756994000053965,372.09389970000484,None,,,,,,,,,,,,,q,001,2021_Jul_08_1644,toilet,2021.1.3,99.94842662058429,
180,180,-4,4,0.85,,,,,0,0,0,0,0,55,55,28,,,,,,,,,,,,,,,,,,,,,,,374.07524679999915,None,374.07524679999915,None,373.57491379999556,None,f,0.8184457000170369,374.07524679999915,None,,,,,,,,,,,,,q,001,2021_Jul_08_1644,toilet,2021.1.3,99.94842662058429,
180,0,-4,4,1.15,,,,,0,0,0,0,1,0,56,48,,,,,,,,,,,,,,,,,,,,,,,375.9065780999954,None,375.9065780999954,None,375.4061514000059,None,j,0.7473876999865752,375.9065780999954,None,,,,,,,,,,,,,q,001,2021_Jul_08_1644,toilet,2021.1.3,99.94842662058429,
0,180,-4,4,1.03,,,,,0,0,0,0,1,1,57,18,,,,,,,,,,,,,,,,,,,,,,,377.6677617999958,None,377.6677617999958,None,377.1673410999938,None,j,0.6658222999831196,377.6677617999958,None,,,,,,,,,,,,,q,001,2021_Jul_08_1644,toilet,2021.1.3,99.94842662058429,
0,0,-4,4,0.85,,,,,0,0,0,0,1,2,58,0,,,,,,,,,,,,,,,,,,,,,,,379.33881600000313,None,379.33881600000313,None,378.838479500002,None,f,0.6587602999934461,379.33881600000313,None,,,,,,,,,,,,,q,001,2021_Jul_08_1644,toilet,2021.1.3,99.94842662058429,
180,180,4,-4,1.15,,,,,0,0,0,0,1,3,59,41,,,,,,,,,,,,,,,,,,,,,,,380.999936600012,None,380.999936600012,None,380.49959650001256,None,f,0.7256583000125829,380.999936600012,None,,,,,,,,,,,,,q,001,2021_Jul_08_1644,toilet,2021.1.3,99.94842662058429,
180,0,-4,4,1.03,,,,,0,0,0,0,1,4,60,46,,,,,,,,,,,,,,,,,,,,,,,382.7311180999968,None,382.7311180999968,None,382.2307723000122,None,f,0.9467062000185251,382.7311180999968,None,,,,,,,,,,,,,q,001,2021_Jul_08_1644,toilet,2021.1.3,99.94842662058429,
0,180,-4,4,1.06,,,,,0,0,0,0,1,5,61,19,,,,,,,,,,,,,,,,,,,,,,,384.6924590000126,None,384.6924590000126,None,384.1922010999988,None,j,0.7933119000226725,384.6924590000126,None,,,,,,,,,,,,,q,001,2021_Jul_08_1644,toilet,2021.1.3,99.94842662058429,
180,0,-4,4,0.85,,,,,0,0,0,0,1,6,62,42,,,,,,,,,,,,,,,,,,,,,,,386.5036637999874,None,386.5036637999874,None,386.00332300001173,None,f,0.742048199987039,386.5036637999874,None,,,,,,,,,,,,,q,001,2021_Jul_08_1644,toilet,2021.1.3,99.94842662058429,
180,0,4,-4,0.85,,,,,0,0,0,0,1,7,63,49,,,,,,,,,,,,,,,,,,,,,,,388.24485300001106,None,388.24485300001106,None,387.74451310001314,None,j,0.5850206000031903,388.24485300001106,None,,,,,,,,,,,,,q,001,2021_Jul_08_1644,toilet,2021.1.3,99.94842662058429,
0,180,4,-4,1.03,,,,,0,0,0,0,1,8,64,25,,,,,,,,,,,,,,,,,,,,,,,389.8459348999895,None,389.8459348999895,None,389.3455962000007,None,f,0.6957218000025023,389.8459348999895,None,,,,,,,,,,,,,q,001,2021_Jul_08_1644,toilet,2021.1.3,99.94842662058429,
180,180,-4,4,0.97,,,,,0,0,0,0,1,9,65,30,,,,,,,,,,,,,,,,,,,,,,,391.5471904000151,None,391.5471904000151,None,391.0468431999907,None,f,1.890420500014443,391.5471904000151,None,,,,,,,,,,,,,q,001,2021_Jul_08_1644,toilet,2021.1.3,99.94842662058429,
0,0,-4,4,0.97,,,,,0,0,0,0,1,10,66,2,,,,,,,,,,,,,,,,,,,,,,,394.439054699993,None,394.439054699993,None,393.9387144999928,None,j,0.742593399976613,394.439054699993,None,,,,,,,,,,,,,q,001,2021_Jul_08_1644,toilet,2021.1.3,99.94842662058429,
0,0,4,-4,1.06,,,,,0,0,0,0,1,11,67,12,,,,,,,,,,,,,,,,,,,,,,,396.1902405000001,None,396.1902405000001,None,395.6898984000145,None,f,1.2635084000066854,396.1902405000001,None,,,,,,,,,,,,,q,001,2021_Jul_08_1644,toilet,2021.1.3,99.94842662058429,
180,0,-4,4,0.97,,,,,0,0,0,0,1,12,68,44,,,,,,,,,,,,,,,,,,,,,,,398.47179119999055,None,398.47179119999055,None,397.9715234999894,None,f,0.9818480999965686,398.47179119999055,None,,,,,,,,,,,,,q,001,2021_Jul_08_1644,toilet,2021.1.3,99.94842662058429,
180,0,4,-4,0.97,,,,,0,0,0,0,1,13,69,51,,,,,,,,,,,,,,,,,,,,,,,400.4631429000001,None,400.4631429000001,None,399.96286900000996,None,j,1.2145228000008501,400.4631429000001,None,,,,,,,,,,,,,q,001,2021_Jul_08_1644,toilet,2021.1.3,99.94842662058429,
0,180,4,-4,1.15,,,,,0,0,0,0,1,14,70,27,,,,,,,,,,,,,,,,,,,,,,,402.6846457000065,None,402.6846457000065,None,402.1843044999987,None,f,0.6571464000153355,402.6846457000065,None,,,,,,,,,,,,,q,001,2021_Jul_08_1644,toilet,2021.1.3,99.94842662058429,
180,180,-4,4,1.03,,,,,0,0,0,0,1,15,71,32,,,,,,,,,,,,,,,,,,,,,,,404.35577960000955,None,404.35577960000955,None,403.85543940000935,None,j,0.5698705000104383,404.35577960000955,None,,,,,,,,,,,,,q,001,2021_Jul_08_1644,toilet,2021.1.3,99.94842662058429,
180,0,4,-4,1.15,,,,,0,0,0,0,1,16,72,55,,,,,,,,,,,,,,,,,,,,,,,405.93683439999586,None,405.93683439999586,None,405.43659789999947,None,f,0.5408032999839634,405.93683439999586,None,,,,,,,,,,,,,q,001,2021_Jul_08_1644,toilet,2021.1.3,99.94842662058429,
180,0,4,-4,1.03,,,,,0,0,0,0,1,17,73,53,,,,,,,,,,,,,,,,,,,,,,,407.4879157000105,None,407.4879157000105,None,406.9876518000092,None,j,0.5737839000066742,407.4879157000105,None,,,,,,,,,,,,,q,001,2021_Jul_08_1644,toilet,2021.1.3,99.94842662058429,
180,0,4,-4,1.0,,,,,0,0,0,0,1,18,74,52,,,,,,,,,,,,,,,,,,,,,,,409.06897160000517,None,409.06897160000517,None,408.56863610001164,None,j,0.7208032000053208,409.06897160000517,None,,,,,,,,,,,,,q,001,2021_Jul_08_1644,toilet,2021.1.3,99.94842662058429,
0,0,-4,4,1.06,,,,,0,0,0,0,1,19,75,5,,,,,,,,,,,,,,,,,,,,,,,410.790138500015,None,410.790138500015,None,410.2898037999985,None,j,0.7753920000104699,410.790138500015,None,,,,,,,,,,,,,q,001,2021_Jul_08_1644,toilet,2021.1.3,99.94842662058429,
0,180,4,-4,0.97,,,,,0,0,0,0,1,20,76,23,,,,,,,,,,,,,,,,,,,,,,,412.57143109999015,None,412.57143109999015,None,412.07100809999974,None,j,0.8821346999902744,412.57143109999015,None,,,,,,,,,,,,,q,001,2021_Jul_08_1644,toilet,2021.1.3,99.94842662058429,
0,0,4,-4,0.94,,,,,0,0,0,0,1,21,77,8,,,,,,,,,,,,,,,,,,,,,,,414.46270830000867,None,414.46270830000867,None,413.96237180000753,None,j,0.8308333000168204,414.46270830000867,None,,,,,,,,,,,,,q,001,2021_Jul_08_1644,toilet,2021.1.3,99.94842662058429,
180,180,-4,4,1.15,,,,,0,0,0,0,1,22,78,34,,,,,,,,,,,,,,,,,,,,,,,416.29389440000523,None,416.29389440000523,None,415.7935340999975,None,j,0.6157179000147153,416.29389440000523,None,,,,,,,,,,,,,q,001,2021_Jul_08_1644,toilet,2021.1.3,99.94842662058429,
0,0,4,-4,0.97,,,,,0,0,0,0,1,23,79,9,,,,,,,,,,,,,,,,,,,,,,,417.914972700004,None,417.914972700004,None,417.4146332000091,None,f,0.6908588999940548,417.914972700004,None,,,,,,,,,,,,,q,001,2021_Jul_08_1644,toilet,2021.1.3,99.94842662058429,
180,180,-4,4,1.06,,,,,0,0,0,0,1,24,80,33,,,,,,,,,,,,,,,,,,,,,,,419.61612940000487,None,419.61612940000487,None,419.11579700000584,None,j,0.6056855000206269,419.61612940000487,None,,,,,,,,,,,,,q,001,2021_Jul_08_1644,toilet,2021.1.3,99.94842662058429,
180,180,-4,4,1.0,,,,,0,0,0,0,1,25,81,31,,,,,,,,,,,,,,,,,,,,,,,421.2373077000084,None,421.2373077000084,None,420.73697769999853,None,j,0.7604060000157915,421.2373077000084,None,,,,,,,,,,,,,q,001,2021_Jul_08_1644,toilet,2021.1.3,99.94842662058429,
180,0,-4,4,1.06,,,,,0,0,0,0,1,26,82,47,,,,,,,,,,,,,,,,,,,,,,,423.00842349999584,None,423.00842349999584,None,422.50808480000705,None,f,1.533175199991092,423.00842349999584,None,,,,,,,,,,,,,q,001,2021_Jul_08_1644,toilet,2021.1.3,99.94842662058429,
180,0,4,-4,0.94,,,,,0,0,0,0,1,27,83,50,,,,,,,,,,,,,,,,,,,,,,,425.55015240001376,None,425.55015240001376,None,425.0498163999873,None,j,0.751530699984869,425.55015240001376,None,,,,,,,,,,,,,q,001,2021_Jul_08_1644,toilet,2021.1.3,99.94842662058429,
180,180,4,-4,0.85,,,,,0,0,0,0,1,28,84,35,,,,,,,,,,,,,,,,,,,,,,,427.3113411999948,None,427.3113411999948,None,426.8110066000081,None,j,0.5263526999915484,427.3113411999948,None,,,,,,,,,,,,,q,001,2021_Jul_08_1644,toilet,2021.1.3,99.94842662058429,
180,0,4,-4,1.06,,,,,0,0,0,0,1,29,85,54,,,,,,,,,,,,,,,,,,,,,,,428.85246709999046,None,428.85246709999046,None,428.35212250001496,None,f,0.7933039999916218,428.85246709999046,None,,,,,,,,,,,,,q,001,2021_Jul_08_1644,toilet,2021.1.3,99.94842662058429,
0,0,4,-4,1.0,,,,,0,0,0,0,1,30,86,10,,,,,,,,,,,,,,,,,,,,,,,430.6636193000013,None,430.6636193000013,None,430.16329369999585,None,f,0.8379569000098854,430.6636193000013,None,,,,,,,,,,,,,q,001,2021_Jul_08_1644,toilet,2021.1.3,99.94842662058429,
0,180,-4,4,0.94,,,,,0,0,0,0,1,31,87,15,,,,,,,,,,,,,,,,,,,,,,,432.5048672000121,None,432.5048672000121,None,432.0045291999995,None,j,1.0287987999909092,432.5048672000121,None,,,,,,,,,,,,,q,001,2021_Jul_08_1644,toilet,2021.1.3,99.94842662058429,
0,180,-4,4,1.0,,,,,0,0,0,0,1,32,88,17,,,,,,,,,,,,,,,,,,,,,,,434.53624950000085,None,434.53624950000085,None,434.0358972999966,None,j,0.6774221000086982,434.53624950000085,None,,,,,,,,,,,,,q,001,2021_Jul_08_1644,toilet,2021.1.3,99.94842662058429,
0,180,-4,4,0.97,,,,,0,0,0,0,1,33,89,16,,,,,,,,,,,,,,,,,,,,,,,436.22746890000417,None,436.22746890000417,None,435.72713159999694,None,j,1.0181720000109635,436.22746890000417,None,,,,,,,,,,,,,q,001,2021_Jul_08_1644,toilet,2021.1.3,99.94842662058429,
0,180,4,-4,0.94,,,,,0,0,0,0,1,34,90,22,,,,,,,,,,,,,,,,,,,,,,,438.24876570000197,None,438.24876570000197,None,437.74842220000573,None,j,0.8689103000215255,438.24876570000197,None,,,,,,,,,,,,,q,001,2021_Jul_08_1644,toilet,2021.1.3,99.94842662058429,
180,180,-4,4,0.94,,,,,0,0,0,0,1,35,91,29,,,,,,,,,,,,,,,,,,,,,,,440.12003160000313,None,440.12003160000313,None,439.6196883000084,None,f,0.7256932000163943,440.12003160000313,None,,,,,,,,,,,,,q,001,2021_Jul_08_1644,toilet,2021.1.3,99.94842662058429,
0,0,4,-4,1.15,,,,,0,0,0,0,1,36,92,13,,,,,,,,,,,,,,,,,,,,,,,441.87122140001156,None,441.87122140001156,None,441.37087760001305,None,f,0.6223384999902919,441.87122140001156,None,,,,,,,,,,,,,q,001,2021_Jul_08_1644,toilet,2021.1.3,99.94842662058429,
180,180,4,-4,1.0,,,,,0,0,0,0,1,37,93,38,,,,,,,,,,,,,,,,,,,,,,,443.5024027999898,None,443.5024027999898,None,443.0020663999894,None,f,0.591342400002759,443.5024027999898,None,,,,,,,,,,,,,q,001,2021_Jul_08_1644,toilet,2021.1.3,99.94842662058429,
180,180,4,-4,1.03,,,,,0,0,0,0,1,38,94,39,,,,,,,,,,,,,,,,,,,,,,,445.1034052000032,None,445.1034052000032,None,444.6030667999876,None,j,1.0381600999971852,445.1034052000032,None,,,,,,,,,,,,,q,001,2021_Jul_08_1644,toilet,2021.1.3,99.94842662058429,
0,180,4,-4,1.0,,,,,0,0,0,0,1,39,95,24,,,,,,,,,,,,,,,,,,,,,,,447.1447946999979,None,447.1447946999979,None,446.6444526000123,None,f,1.0288697000069078,447.1447946999979,None,,,,,,,,,,,,,q,001,2021_Jul_08_1644,toilet,2021.1.3,99.94842662058429,
0,180,4,-4,1.06,,,,,0,0,0,0,1,40,96,26,,,,,,,,,,,,,,,,,,,,,,,449.1861762999906,None,449.1861762999906,None,448.685833800002,None,f,1.0356334999960382,449.1861762999906,None,,,,,,,,,,,,,q,001,2021_Jul_08_1644,toilet,2021.1.3,99.94842662058429,
180,0,-4,4,0.94,,,,,0,0,0,0,1,41,97,43,,,,,,,,,,,,,,,,,,,,,,,451.23760819999734,None,451.23760819999734,None,450.7373084000137,None,f,0.9359343000105582,451.23760819999734,None,,,,,,,,,,,,,q,001,2021_Jul_08_1644,toilet,2021.1.3,99.94842662058429,
0,0,-4,4,1.03,,,,,0,0,0,0,1,42,98,4,,,,,,,,,,,,,,,,,,,,,,,453.1788871999888,None,453.1788871999888,None,452.678541900008,None,j,0.8508696999924723,453.1788871999888,None,,,,,,,,,,,,,q,001,2021_Jul_08_1644,toilet,2021.1.3,99.94842662058429,
180,180,-4,4,0.85,,,,,0,0,0,0,1,43,99,28,,,,,,,,,,,,,,,,,,,,,,,455.03013400000054,None,455.03013400000054,None,454.5398063999892,None,f,0.7435725000104867,455.03013400000054,None,,,,,,,,,,,,,q,001,2021_Jul_08_1644,toilet,2021.1.3,99.94842662058429,
0,0,-4,4,1.0,,,,,0,0,0,0,1,44,100,3,,,,,,,,,,,,,,,,,,,,,,,456.80133630000637,None,456.80133630000637,None,456.30099540000083,None,j,0.6682951000111643,456.80133630000637,None,,,,,,,,,,,,,q,001,2021_Jul_08_1644,toilet,2021.1.3,99.94842662058429,
0,0,4,-4,1.03,,,,,0,0,0,0,1,45,101,11,,,,,,,,,,,,,,,,,,,,,,,458.47256070000003,None,458.47256070000003,None,457.9722174000053,None,j,0.6931116000050679,458.47256070000003,None,,,,,,,,,,,,,q,001,2021_Jul_08_1644,toilet,2021.1.3,99.94842662058429,
0,0,-4,4,0.94,,,,,0,0,0,0,1,46,102,1,,,,,,,,,,,,,,,,,,,,,,,460.1836290000065,None,460.1836290000065,None,459.68330410000635,None,f,0.8379242999944836,460.1836290000065,None,,,,,,,,,,,,,q,001,2021_Jul_08_1644,toilet,2021.1.3,99.94842662058429,
180,180,4,-4,0.97,,,,,0,0,0,0,1,47,103,37,,,,,,,,,,,,,,,,,,,,,,,462.02488159999484,None,462.02488159999484,None,461.52454419998685,None,j,0.5328432000242174,462.02488159999484,None,,,,,,,,,,,,,q,001,2021_Jul_08_1644,toilet,2021.1.3,99.94842662058429,
180,180,4,-4,1.06,,,,,0,0,0,0,1,48,104,40,,,,,,,,,,,,,,,,,,,,,,,463.57594119998976,None,463.57594119998976,None,463.0755977999943,None,f,0.6456100000068545,463.57594119998976,None,,,,,,,,,,,,,q,001,2021_Jul_08_1644,toilet,2021.1.3,99.94842662058429,
0,0,4,-4,0.85,,,,,0,0,0,0,1,49,105,7,,,,,,,,,,,,,,,,,,,,,,,465.22714239999186,None,465.22714239999186,None,464.7267903999891,None,j,0.5625891999807209,465.22714239999186,None,,,,,,,,,,,,,q,001,2021_Jul_08_1644,toilet,2021.1.3,99.94842662058429,
0,180,-4,4,1.15,,,,,0,0,0,0,1,50,106,20,,,,,,,,,,,,,,,,,,,,,,,466.8081255000143,None,466.8081255000143,None,466.3078861999966,None,j,0.5815106999943964,466.8081255000143,None,,,,,,,,,,,,,q,001,2021_Jul_08_1644,toilet,2021.1.3,99.94842662058429,
0,180,4,-4,0.85,,,,,0,0,0,0,1,51,107,21,,,,,,,,,,,,,,,,,,,,,,,468.39920320000965,None,468.39920320000965,None,467.8988709000114,None,j,0.6063807999889832,468.39920320000965,None,,,,,,,,,,,,,q,001,2021_Jul_08_1644,toilet,2021.1.3,99.94842662058429,
180,180,4,-4,0.94,,,,,0,0,0,0,1,52,108,36,,,,,,,,,,,,,,,,,,,,,,,470.01029720000224,None,470.01029720000224,None,469.50996029999806,None,j,0.5953956000157632,470.01029720000224,None,,,,,,,,,,,,,q,001,2021_Jul_08_1644,toilet,2021.1.3,99.94842662058429,
0,180,-4,4,0.85,,,,,0,0,0,0,1,53,109,14,,,,,,,,,,,,,,,,,,,,,,,471.62146130000474,None,471.62146130000474,None,471.12106050000875,None,f,0.5040663999971002,471.62146130000474,None,,,,,,,,,,,,,q,001,2021_Jul_08_1644,toilet,2021.1.3,99.94842662058429,
180,0,-4,4,1.0,,,,,0,0,0,0,1,54,110,45,,,,,,,,,,,,,,,,,,,,,,,473.13243259998853,None,473.13243259998853,None,472.63216060001287,None,f,0.8171064000052866,473.13243259998853,None,,,,,,,,,,,,,q,001,2021_Jul_08_1644,toilet,2021.1.3,99.94842662058429,
0,0,-4,4,1.15,,,,,0,0,0,0,1,55,111,6,,,,,,,,,,,,,,,,,,,,,,,474.95364900000277,None,474.95364900000277,None,474.45331350000924,None,j,0.5478582000068855,474.95364900000277,None,,,,,,,,,,,,,q,001,2021_Jul_08_1644,toilet,2021.1.3,99.94842662058429,
,,,,,,,,,0,0,0,0,,,,,,,,,,,,,,,,,,,,,,,,,,,,,,,,,,,,,475.5140307999973,None,space,26.787610900006257,475.5140307999973,None,,,,,,,q,001,2021_Jul_08_1644,toilet,2021.1.3,99.94842662058429,
0,180,-4,4,1.06,,,,,1,0,1,0,0,0,0,19,,,,,,,,,,,,,,,,,502.32224270000006,None,space,7.019305599998916,502.32224270000006,None,510.35774949999177,None,510.35774949999177,None,509.85742149999714,None,j,0.7440168999892194,510.35774949999177,None,,,,,,,,,,,,,q,001,2021_Jul_08_1644,toilet,2021.1.3,99.94842662058429,
0,0,-4,4,1.0,,,,,1,0,1,0,0,1,1,3,,,,,,,,,,,,,,,,,,,,,,,512.1088457000151,None,512.1088457000151,None,511.6085315000091,None,f,1.0567721000115853,512.1088457000151,None,,,,,,,,,,,,,q,001,2021_Jul_08_1644,toilet,2021.1.3,99.94842662058429,
0,0,4,-4,0.97,,,,,1,0,1,0,0,2,2,9,,,,,,,,,,,,,,,,,,,,,,,514.1702445000119,None,514.1702445000119,None,513.6699093999923,None,j,0.6913845000090078,514.1702445000119,None,,,,,,,,,,,,,q,001,2021_Jul_08_1644,toilet,2021.1.3,99.94842662058429,
180,180,-4,4,0.94,,,,,1,0,1,0,0,3,3,29,,,,,,,,,,,,,,,,,,,,,,,515.8714025999943,None,515.8714025999943,None,515.3710534000129,None,f,0.6542505999968853,515.8714025999943,None,,,,,,,,,,,,,q,001,2021_Jul_08_1644,toilet,2021.1.3,99.94842662058429,
180,180,4,-4,1.15,,,,,1,0,1,0,0,4,4,41,,,,,,,,,,,,,,,,,,,,,,,517.5326187000028,None,517.5326187000028,None,517.0322543999937,None,f,0.6569089999829885,517.5326187000028,None,,,,,,,,,,,,,q,001,2021_Jul_08_1644,toilet,2021.1.3,99.94842662058429,
180,180,4,-4,0.97,,,,,1,0,1,0,0,5,5,37,,,,,,,,,,,,,,,,,,,,,,,519.1936497999995,None,519.1936497999995,None,518.6933124999923,None,j,0.6278810000221711,519.1936497999995,None,,,,,,,,,,,,,q,001,2021_Jul_08_1644,toilet,2021.1.3,99.94842662058429,
0,0,4,-4,0.94,,,,,1,0,1,0,0,6,6,8,,,,,,,,,,,,,,,,,,,,,,,520.8247575999994,None,520.8247575999994,None,520.3244195000152,None,j,0.6289327000267804,520.8247575999994,None,,,,,,,,,,,,,q,001,2021_Jul_08_1644,toilet,2021.1.3,99.94842662058429,
180,0,4,-4,0.85,,,,,1,0,1,0,0,7,7,49,,,,,,,,,,,,,,,,,,,,,,,522.465867299994,None,522.465867299994,None,521.9655273999961,None,j,0.5877528999990318,522.465867299994,None,,,,,,,,,,,,,q,001,2021_Jul_08_1644,toilet,2021.1.3,99.94842662058429,
0,0,-4,4,0.94,,,,,1,0,1,0,0,8,8,1,,,,,,,,,,,,,,,,,,,,,,,524.0670448000019,None,524.0670448000019,None,523.5666156999941,None,f,0.650704899977427,524.0670448000019,None,,,,,,,,,,,,,q,001,2021_Jul_08_1644,toilet,2021.1.3,99.94842662058429,
180,180,-4,4,1.06,,,,,1,0,1,0,0,9,9,33,,,,,,,,,,,,,,,,,,,,,,,525.7280922000064,None,525.7280922000064,None,525.2277787000057,None,j,0.5416065000172239,525.7280922000064,None,,,,,,,,,,,,,q,001,2021_Jul_08_1644,toilet,2021.1.3,99.94842662058429,
0,180,4,-4,1.0,,,,,1,0,1,0,0,10,10,24,,,,,,,,,,,,,,,,,,,,,,,527.2691248999909,None,527.2691248999909,None,526.768790800008,None,f,0.6326009999902453,527.2691248999909,None,,,,,,,,,,,,,q,001,2021_Jul_08_1644,toilet,2021.1.3,99.94842662058429,
180,180,4,-4,0.94,,,,,1,0,1,0,0,11,11,36,,,,,,,,,,,,,,,,,,,,,,,528.9302526999963,None,528.9302526999963,None,528.4299177000066,None,j,0.6193834999867249,528.9302526999963,None,,,,,,,,,,,,,q,001,2021_Jul_08_1644,toilet,2021.1.3,99.94842662058429,
0,180,4,-4,0.97,,,,,1,0,1,0,0,12,12,23,,,,,,,,,,,,,,,,,,,,,,,530.5514400000102,None,530.5514400000102,None,530.0510156000091,None,f,0.7262195000075735,530.5514400000102,None,,,,,,,,,,,,,q,001,2021_Jul_08_1644,toilet,2021.1.3,99.94842662058429,
0,180,-4,4,1.0,,,,,1,0,1,0,0,13,13,17,,,,,,,,,,,,,,,,,,,,,,,532.2926058000012,None,532.2926058000012,None,531.7922006000008,None,f,0.7289003999903798,532.2926058000012,None,,,,,,,,,,,,,q,001,2021_Jul_08_1644,toilet,2021.1.3,99.94842662058429,
180,180,-4,4,1.0,,,,,1,0,1,0,0,14,14,31,,,,,,,,,,,,,,,,,,,,,,,534.0237136000069,None,534.0237136000069,None,533.5233688000008,None,j,1.525857000000542,534.0237136000069,None,,,,,,,,,,,,,q,001,2021_Jul_08_1644,toilet,2021.1.3,99.94842662058429,
0,0,4,-4,1.06,,,,,1,0,1,0,0,15,15,12,,,,,,,,,,,,,,,,,,,,,,,536.5554268000124,None,536.5554268000124,None,536.0550916999928,None,f,0.7223088000027929,536.5554268000124,None,,,,,,,,,,,,,q,001,2021_Jul_08_1644,toilet,2021.1.3,99.94842662058429,
180,0,4,-4,1.0,,,,,1,0,1,0,0,16,16,52,,,,,,,,,,,,,,,,,,,,,,,538.306762799999,None,538.306762799999,None,537.806275400013,None,f,0.9707618000102229,538.306762799999,None,,,,,,,,,,,,,q,001,2021_Jul_08_1644,toilet,2021.1.3,99.94842662058429,
180,0,-4,4,0.85,,,,,1,0,1,0,0,17,17,42,,,,,,,,,,,,,,,,,,,,,,,540.2779532000131,None,540.2779532000131,None,539.7777069000003,None,f,0.6475923999969382,540.2779532000131,None,,,,,,,,,,,,,q,001,2021_Jul_08_1644,toilet,2021.1.3,99.94842662058429,
0,180,4,-4,1.15,,,,,1,0,1,0,0,18,18,27,,,,,,,,,,,,,,,,,,,,,,,541.9290647000016,None,541.9290647000016,None,541.4287366000062,None,f,0.8364577000029385,541.9290647000016,None,,,,,,,,,,,,,q,001,2021_Jul_08_1644,toilet,2021.1.3,99.94842662058429,
180,0,-4,4,1.15,,,,,1,0,1,0,0,19,19,48,,,,,,,,,,,,,,,,,,,,,,,543.7703191000037,None,543.7703191000037,None,543.2699768999883,None,j,0.6275107999972533,543.7703191000037,None,,,,,,,,,,,,,q,001,2021_Jul_08_1644,toilet,2021.1.3,99.94842662058429,
0,180,-4,4,0.85,,,,,1,0,1,0,0,20,20,14,,,,,,,,,,,,,,,,,,,,,,,545.411428499996,None,545.411428499996,None,544.9110902000102,None,f,0.6341022999840789,545.411428499996,None,,,,,,,,,,,,,q,001,2021_Jul_08_1644,toilet,2021.1.3,99.94842662058429,
180,0,4,-4,1.15,,,,,1,0,1,0,0,21,21,55,,,,,,,,,,,,,,,,,,,,,,,547.0526219999883,None,547.0526219999883,None,546.5522958000074,None,f,0.5129734000074677,547.0526219999883,None,,,,,,,,,,,,,q,001,2021_Jul_08_1644,toilet,2021.1.3,99.94842662058429,
0,180,-4,4,1.03,,,,,1,0,1,0,0,22,22,18,,,,,,,,,,,,,,,,,,,,,,,548.5835801000067,None,548.5835801000067,None,548.0832448000147,None,j,1.221964600001229,548.5835801000067,None,,,,,,,,,,,,,q,001,2021_Jul_08_1644,toilet,2021.1.3,99.94842662058429,
0,0,-4,4,1.15,,,,,1,0,1,0,0,23,23,6,,,,,,,,,,,,,,,,,,,,,,,550.8050884999975,None,550.8050884999975,None,550.3147616999922,None,j,0.5685361000068951,550.8050884999975,None,,,,,,,,,,,,,q,001,2021_Jul_08_1644,toilet,2021.1.3,99.94842662058429,
180,0,-4,4,1.0,,,,,1,0,1,0,0,24,24,45,,,,,,,,,,,,,,,,,,,,,,,552.3861596999923,None,552.3861596999923,None,551.8858246000018,None,f,0.5714668000000529,552.3861596999923,None,,,,,,,,,,,,,q,001,2021_Jul_08_1644,toilet,2021.1.3,99.94842662058429,
0,0,-4,4,1.03,,,,,1,0,1,0,0,25,25,4,,,,,,,,,,,,,,,,,,,,,,,553.9672303000116,None,553.9672303000116,None,553.4669864999887,None,f,0.8623734999855515,553.9672303000116,None,,,,,,,,,,,,,q,001,2021_Jul_08_1644,toilet,2021.1.3,99.94842662058429,
180,0,4,-4,0.94,,,,,1,0,1,0,0,26,26,50,,,,,,,,,,,,,,,,,,,,,,,555.8385015999957,None,555.8385015999957,None,555.3381572999933,None,j,0.6230856999754906,555.8385015999957,None,,,,,,,,,,,,,q,001,2021_Jul_08_1644,toilet,2021.1.3,99.94842662058429,
0,180,4,-4,0.85,,,,,1,0,1,0,0,27,27,21,,,,,,,,,,,,,,,,,,,,,,,557.4696056999965,None,557.4696056999965,None,556.9692836999893,None,j,0.7999963999900501,557.4696056999965,None,,,,,,,,,,,,,q,001,2021_Jul_08_1644,toilet,2021.1.3,99.94842662058429,
0,180,4,-4,1.06,,,,,1,0,1,0,0,28,28,26,,,,,,,,,,,,,,,,,,,,,,,559.28083589999,None,559.28083589999,None,558.7804943000083,None,f,0.5570770999765955,559.28083589999,None,,,,,,,,,,,,,q,001,2021_Jul_08_1644,toilet,2021.1.3,99.94842662058429,
0,180,-4,4,0.94,,,,,1,0,1,0,0,29,29,15,,,,,,,,,,,,,,,,,,,,,,,560.8620007999998,None,560.8620007999998,None,560.3615669000137,None,f,0.6076053999713622,560.8620007999998,None,,,,,,,,,,,,,q,001,2021_Jul_08_1644,toilet,2021.1.3,99.94842662058429,
180,0,4,-4,0.97,,,,,1,0,1,0,0,30,30,51,,,,,,,,,,,,,,,,,,,,,,,562.4830077000079,None,562.4830077000079,None,561.9827503999986,None,j,0.5544626000046264,562.4830077000079,None,,,,,,,,,,,,,q,001,2021_Jul_08_1644,toilet,2021.1.3,99.94842662058429,
180,180,-4,4,0.97,,,,,1,0,1,0,0,31,31,30,,,,,,,,,,,,,,,,,,,,,,,564.044063600013,None,564.044063600013,None,563.5437260000035,None,f,0.5935408000077587,564.044063600013,None,,,,,,,,,,,,,q,001,2021_Jul_08_1644,toilet,2021.1.3,99.94842662058429,
180,0,-4,4,0.94,,,,,1,0,1,0,0,32,32,43,,,,,,,,,,,,,,,,,,,,,,,565.6551615000062,None,565.6551615000062,None,565.1548219000106,None,f,0.502398800017545,565.6551615000062,None,,,,,,,,,,,,,q,001,2021_Jul_08_1644,toilet,2021.1.3,99.94842662058429,
180,0,-4,4,1.06,,,,,1,0,1,0,0,33,33,47,,,,,,,,,,,,,,,,,,,,,,,567.1661854000122,None,567.1661854000122,None,566.6658455000143,None,j,0.6073188000009395,567.1661854000122,None,,,,,,,,,,,,,q,001,2021_Jul_08_1644,toilet,2021.1.3,99.94842662058429,
0,0,-4,4,0.97,,,,,1,0,1,0,0,34,34,2,,,,,,,,,,,,,,,,,,,,,,,568.7873140999873,None,568.7873140999873,None,568.2870127999922,None,f,0.7781886999728158,568.7873140999873,None,,,,,,,,,,,,,q,001,2021_Jul_08_1644,toilet,2021.1.3,99.94842662058429,
0,180,-4,4,1.15,,,,,1,0,1,0,0,35,35,20,,,,,,,,,,,,,,,,,,,,,,,570.5684979000071,None,570.5684979000071,None,570.0681505000102,None,j,0.5331953999993857,570.5684979000071,None,,,,,,,,,,,,,q,001,2021_Jul_08_1644,toilet,2021.1.3,99.94842662058429,
0,0,4,-4,1.0,,,,,1,0,1,0,0,36,36,10,,,,,,,,,,,,,,,,,,,,,,,572.1095370000112,None,572.1095370000112,None,571.6091942999919,None,f,0.5119764000119176,572.1095370000112,None,,,,,,,,,,,,,q,001,2021_Jul_08_1644,toilet,2021.1.3,99.94842662058429,
180,180,-4,4,1.15,,,,,1,0,1,0,0,37,37,34,,,,,,,,,,,,,,,,,,,,,,,573.6405720000039,None,573.6405720000039,None,573.1402333000151,None,j,0.48493219999363646,573.6405720000039,None,,,,,,,,,,,,,q,001,2021_Jul_08_1644,toilet,2021.1.3,99.94842662058429,
180,180,4,-4,1.06,,,,,1,0,1,0,0,38,38,40,,,,,,,,,,,,,,,,,,,,,,,575.1316641999874,None,575.1316641999874,None,574.6312579000078,None,f,0.481855899997754,575.1316641999874,None,,,,,,,,,,,,,q,001,2021_Jul_08_1644,toilet,2021.1.3,99.94842662058429,
0,0,-4,4,1.06,,,,,1,0,1,0,0,39,39,5,,,,,,,,,,,,,,,,,,,,,,,576.6226857000147,None,576.6226857000147,None,576.1223362000019,None,f,0.5748136999900453,576.6226857000147,None,,,,,,,,,,,,,q,001,2021_Jul_08_1644,toilet,2021.1.3,99.94842662058429,
0,0,4,-4,1.15,,,,,1,0,1,0,0,40,40,13,,,,,,,,,,,,,,,,,,,,,,,578.203660500003,None,578.203660500003,None,577.703321900015,None,f,0.5298386000213213,578.203660500003,None,,,,,,,,,,,,,q,001,2021_Jul_08_1644,toilet,2021.1.3,99.94842662058429,
180,180,4,-4,1.0,,,,,1,0,1,0,0,41,41,38,,,,,,,,,,,,,,,,,,,,,,,579.7347031999961,None,579.7347031999961,None,579.2343574000115,None,j,0.7268364999908954,579.7347031999961,None,,,,,,,,,,,,,q,001,2021_Jul_08_1644,toilet,2021.1.3,99.94842662058429,
0,0,4,-4,1.03,,,,,1,0,1,0,0,42,42,11,,,,,,,,,,,,,,,,,,,,,,,581.4658836000017,None,581.4658836000017,None,580.96554070001,None,f,0.5318076999974437,581.4658836000017,None,,,,,,,,,,,,,q,001,2021_Jul_08_1644,toilet,2021.1.3,99.94842662058429,
0,0,-4,4,0.85,,,,,1,0,1,0,0,43,43,0,,,,,,,,,,,,,,,,,,,,,,,582.9970036000013,None,582.9970036000013,None,582.4965796000033,None,f,0.5844863000093028,582.9970036000013,None,,,,,,,,,,,,,q,001,2021_Jul_08_1644,toilet,2021.1.3,99.94842662058429,
180,180,-4,4,0.85,,,,,1,0,1,0,0,44,44,28,,,,,,,,,,,,,,,,,,,,,,,584.5879957000143,None,584.5879957000143,None,584.087743799988,None,f,0.5936001999943983,584.5879957000143,None,,,,,,,,,,,,,q,001,2021_Jul_08_1644,toilet,2021.1.3,99.94842662058429,
180,180,-4,4,1.03,,,,,1,0,1,0,0,45,45,32,,,,,,,,,,,,,,,,,,,,,,,586.1890828000032,None,586.1890828000032,None,585.6887412999931,None,j,0.7524764999980107,586.1890828000032,None,,,,,,,,,,,,,q,001,2021_Jul_08_1644,toilet,2021.1.3,99.94842662058429,
0,0,4,-4,0.85,,,,,1,0,1,0,0,46,46,7,,,,,,,,,,,,,,,,,,,,,,,587.9502767999948,None,587.9502767999948,None,587.4499419000058,None,j,0.5913077000004705,587.9502767999948,None,,,,,,,,,,,,,q,001,2021_Jul_08_1644,toilet,2021.1.3,99.94842662058429,
180,180,4,-4,1.03,,,,,1,0,1,0,0,47,47,39,,,,,,,,,,,,,,,,,,,,,,,589.5513984000136,None,589.5513984000136,None,589.0510256999987,None,f,0.5582815999805462,589.5513984000136,None,,,,,,,,,,,,,q,001,2021_Jul_08_1644,toilet,2021.1.3,99.94842662058429,
180,0,-4,4,0.97,,,,,1,0,1,0,0,48,48,44,,,,,,,,,,,,,,,,,,,,,,,591.1224266999925,None,591.1224266999925,None,590.6221709999954,None,f,1.035238099982962,591.1224266999925,None,,,,,,,,,,,,,q,001,2021_Jul_08_1644,toilet,2021.1.3,99.94842662058429,
180,180,4,-4,0.85,,,,,1,0,1,0,0,49,49,35,,,,,,,,,,,,,,,,,,,,,,,593.163818400004,None,593.163818400004,None,592.6634757000138,None,j,0.5137228000094183,593.163818400004,None,,,,,,,,,,,,,q,001,2021_Jul_08_1644,toilet,2021.1.3,99.94842662058429,
0,180,4,-4,1.03,,,,,1,0,1,0,0,50,50,25,,,,,,,,,,,,,,,,,,,,,,,594.6948482999869,None,594.6948482999869,None,594.1945134999987,None,f,0.6467951999802608,594.6948482999869,None,,,,,,,,,,,,,q,001,2021_Jul_08_1644,toilet,2021.1.3,99.94842662058429,
180,0,4,-4,1.03,,,,,1,0,1,0,0,51,51,53,,,,,,,,,,,,,,,,,,,,,,,596.355978800013,None,596.355978800013,None,595.8556383000105,None,f,0.8577416999905836,596.355978800013,None,,,,,,,,,,,,,q,001,2021_Jul_08_1644,toilet,2021.1.3,99.94842662058429,
0,180,4,-4,0.94,,,,,1,0,1,0,0,52,52,22,,,,,,,,,,,,,,,,,,,,,,,598.2372506000102,None,598.2372506000102,None,597.7369888999965,None,j,0.9924941000062972,598.2372506000102,None,,,,,,,,,,,,,q,001,2021_Jul_08_1644,toilet,2021.1.3,99.94842662058429,
0,180,-4,4,0.97,,,,,1,0,1,0,0,53,53,16,,,,,,,,,,,,,,,,,,,,,,,600.2486175000085,None,600.2486175000085,None,599.7482789999922,None,f,1.0289717999985442,600.2486175000085,None,,,,,,,,,,,,,q,001,2021_Jul_08_1644,toilet,2021.1.3,99.94842662058429,
180,0,-4,4,1.03,,,,,1,0,1,0,0,54,54,46,,,,,,,,,,,,,,,,,,,,,,,602.279996600002,None,602.279996600002,None,601.7796592999948,None,f,1.10962030000519,602.279996600002,None,,,,,,,,,,,,,q,001,2021_Jul_08_1644,toilet,2021.1.3,99.94842662058429,
180,0,4,-4,1.06,,,,,1,0,1,0,0,55,55,54,,,,,,,,,,,,,,,,,,,,,,,604.4015245999908,None,604.4015245999908,None,603.9010946000053,None,f,0.7800660000066273,604.4015245999908,None,,,,,,,,,,,,,q,001,2021_Jul_08_1644,toilet,2021.1.3,99.94842662058429,
0,0,-4,4,1.0,,,,,1,0,1,0,1,0,56,3,,,,,,,,,,,,,,,,,,,,,,,606.1927399999986,None,606.1927399999986,None,605.6923087000032,None,f,0.6527403999934904,606.1927399999986,None,,,,,,,,,,,,,q,001,2021_Jul_08_1644,toilet,2021.1.3,99.94842662058429,
0,180,-4,4,0.97,,,,,1,0,1,0,1,1,57,16,,,,,,,,,,,,,,,,,,,,,,,607.8537776000157,None,607.8537776000157,None,607.353436800011,None,f,0.9277328999887686,607.8537776000157,None,,,,,,,,,,,,,q,001,2021_Jul_08_1644,toilet,2021.1.3,99.94842662058429,
0,180,4,-4,1.06,,,,,1,0,1,0,1,2,58,26,,,,,,,,,,,,,,,,,,,,,,,609.7850828999944,None,609.7850828999944,None,609.2847468999971,None,f,0.6285289999796078,609.7850828999944,None,,,,,,,,,,,,,q,001,2021_Jul_08_1644,toilet,2021.1.3,99.94842662058429,
0,0,4,-4,0.94,,,,,1,0,1,0,1,3,59,8,,,,,,,,,,,,,,,,,,,,,,,611.426201299997,None,611.426201299997,None,610.9258563999902,None,j,0.7313988999812864,611.426201299997,None,,,,,,,,,,,,,q,001,2021_Jul_08_1644,toilet,2021.1.3,99.94842662058429,
180,180,-4,4,1.03,,,,,1,0,1,0,1,4,60,32,,,,,,,,,,,,,,,,,,,,,,,613.16738910001,None,613.16738910001,None,612.667116800003,None,j,0.7181572999979835,613.16738910001,None,,,,,,,,,,,,,q,001,2021_Jul_08_1644,toilet,2021.1.3,99.94842662058429,
180,180,-4,4,1.15,,,,,1,0,1,0,1,5,61,34,,,,,,,,,,,,,,,,,,,,,,,614.8885452999966,None,614.8885452999966,None,614.3882060000033,None,j,0.5969427999807522,614.8885452999966,None,,,,,,,,,,,,,q,001,2021_Jul_08_1644,toilet,2021.1.3,99.94842662058429,
0,180,4,-4,0.85,,,,,1,0,1,0,1,6,62,21,,,,,,,,,,,,,,,,,,,,,,,616.4896305000002,None,616.4896305000002,None,615.9892886999878,None,j,0.7718564000097103,616.4896305000002,None,,,,,,,,,,,,,q,001,2021_Jul_08_1644,toilet,2021.1.3,99.94842662058429,
0,0,-4,4,1.03,,,,,1,0,1,0,1,7,63,4,,,,,,,,,,,,,,,,,,,,,,,618.2608309999923,None,618.2608309999923,None,617.7604896000121,None,j,0.7609191999945324,618.2608309999923,None,,,,,,,,,,,,,q,001,2021_Jul_08_1644,toilet,2021.1.3,99.94842662058429,
180,0,-4,4,1.0,,,,,1,0,1,0,1,8,64,45,,,,,,,,,,,,,,,,,,,,,,,620.0321180000028,None,620.0321180000028,None,619.531693500001,None,f,0.6213439000130165,620.0321180000028,None,,,,,,,,,,,,,q,001,2021_Jul_08_1644,toilet,2021.1.3,99.94842662058429,
180,180,4,-4,1.06,,,,,1,0,1,0,1,9,65,40,,,,,,,,,,,,,,,,,,,,,,,621.6531299999915,None,621.6531299999915,None,621.1528267000103,None,f,0.632459899992682,621.6531299999915,None,,,,,,,,,,,,,q,001,2021_Jul_08_1644,toilet,2021.1.3,99.94842662058429,
0,0,-4,4,0.97,,,,,1,0,1,0,1,10,66,2,,,,,,,,,,,,,,,,,,,,,,,623.2942432000127,None,623.2942432000127,None,622.7939058000047,None,f,0.7353932000114582,623.2942432000127,None,,,,,,,,,,,,,q,001,2021_Jul_08_1644,toilet,2021.1.3,99.94842662058429,
180,180,4,-4,1.15,,,,,1,0,1,0,1,11,67,41,,,,,,,,,,,,,,,,,,,,,,,625.0354297999875,None,625.0354297999875,None,624.5351129999908,None,f,0.6101291000086349,625.0354297999875,None,,,,,,,,,,,,,q,001,2021_Jul_08_1644,toilet,2021.1.3,99.94842662058429,
0,0,4,-4,0.97,,,,,1,0,1,0,1,12,68,9,,,,,,,,,,,,,,,,,,,,,,,626.6565253000008,None,626.6565253000008,None,626.1561865000112,None,j,0.780961100012064,626.6565253000008,None,,,,,,,,,,,,,q,001,2021_Jul_08_1644,toilet,2021.1.3,99.94842662058429,
180,0,4,-4,1.15,,,,,1,0,1,0,1,13,69,55,,,,,,,,,,,,,,,,,,,,,,,628.4477752000093,None,628.4477752000093,None,627.9474840000039,None,f,0.5257886000035796,628.4477752000093,None,,,,,,,,,,,,,q,001,2021_Jul_08_1644,toilet,2021.1.3,99.94842662058429,
180,180,-4,4,0.94,,,,,1,0,1,0,1,14,70,29,,,,,,,,,,,,,,,,,,,,,,,629.9787802000064,None,629.9787802000064,None,629.4784377999895,None,f,0.5467093999905046,629.9787802000064,None,,,,,,,,,,,,,q,001,2021_Jul_08_1644,toilet,2021.1.3,99.94842662058429,
0,0,4,-4,1.03,,,,,1,0,1,0,1,15,71,11,,,,,,,,,,,,,,,,,,,,,,,631.529844100005,None,631.529844100005,None,631.029492200003,None,f,0.7558598000032362,631.529844100005,None,,,,,,,,,,,,,q,001,2021_Jul_08_1644,toilet,2021.1.3,99.94842662058429,
180,0,-4,4,0.94,,,,,1,0,1,0,1,16,72,43,,,,,,,,,,,,,,,,,,,,,,,633.3110479000024,None,633.3110479000024,None,632.8107059999893,None,f,0.7504884000227321,633.3110479000024,None,,,,,,,,,,,,,q,001,2021_Jul_08_1644,toilet,2021.1.3,99.94842662058429,
180,180,4,-4,1.03,,,,,1,0,1,0,1,17,73,39,,,,,,,,,,,,,,,,,,,,,,,635.0722325000097,None,635.0722325000097,None,634.5719740999921,None,f,0.5734077999950387,635.0722325000097,None,,,,,,,,,,,,,q,001,2021_Jul_08_1644,toilet,2021.1.3,99.94842662058429,
180,180,-4,4,0.97,,,,,1,0,1,0,1,18,74,30,,,,,,,,,,,,,,,,,,,,,,,636.663309800002,None,636.663309800002,None,636.1629661000043,None,f,0.6781269000202883,636.663309800002,None,,,,,,,,,,,,,q,001,2021_Jul_08_1644,toilet,2021.1.3,99.94842662058429,
180,180,4,-4,0.94,,,,,1,0,1,0,1,19,75,36,,,,,,,,,,,,,,,,,,,,,,,638.3444512000133,None,638.3444512000133,None,637.8441128999984,None,j,0.7250278999854345,638.3444512000133,None,,,,,,,,,,,,,q,001,2021_Jul_08_1644,toilet,2021.1.3,99.94842662058429,
180,180,4,-4,0.85,,,,,1,0,1,0,1,20,76,35,,,,,,,,,,,,,,,,,,,,,,,640.075620299991,None,640.075620299991,None,639.5752944000124,None,j,0.6099227999802679,640.075620299991,None,,,,,,,,,,,,,q,001,2021_Jul_08_1644,toilet,2021.1.3,99.94842662058429,
180,180,-4,4,0.85,,,,,1,0,1,0,1,21,77,28,,,,,,,,,,,,,,,,,,,,,,,641.6967323000135,None,641.6967323000135,None,641.196454799996,None,f,0.6688124999927823,641.6967323000135,None,,,,,,,,,,,,,q,001,2021_Jul_08_1644,toilet,2021.1.3,99.94842662058429,
0,0,-4,4,1.06,,,,,1,0,1,0,1,22,78,5,,,,,,,,,,,,,,,,,,,,,,,643.3778582999948,None,643.3778582999948,None,642.877610399999,None,j,0.7797106000070926,643.3778582999948,None,,,,,,,,,,,,,q,001,2021_Jul_08_1644,toilet,2021.1.3,99.94842662058429,
180,0,-4,4,1.03,,,,,1,0,1,0,1,23,79,46,,,,,,,,,,,,,,,,,,,,,,,645.1590694999904,None,645.1590694999904,None,644.6587256999919,None,j,0.7103711999952793,645.1590694999904,None,,,,,,,,,,,,,q,001,2021_Jul_08_1644,toilet,2021.1.3,99.94842662058429,
180,0,-4,4,0.97,,,,,1,0,1,0,1,24,80,44,,,,,,,,,,,,,,,,,,,,,,,646.8702362999902,None,646.8702362999902,None,646.3698919999879,None,f,0.6793222999840509,646.8702362999902,None,,,,,,,,,,,,,q,001,2021_Jul_08_1644,toilet,2021.1.3,99.94842662058429,
0,0,4,-4,0.85,,,,,1,0,1,0,1,25,81,7,,,,,,,,,,,,,,,,,,,,,,,648.5613801,None,648.5613801,None,648.0610453000118,None,j,0.7323571000015363,648.5613801,None,,,,,,,,,,,,,q,001,2021_Jul_08_1644,toilet,2021.1.3,99.94842662058429,
180,0,4,-4,0.97,,,,,1,0,1,0,1,26,82,51,,,,,,,,,,,,,,,,,,,,,,,650.3025643000146,None,650.3025643000146,None,649.802289299987,None,j,0.703003800008446,650.3025643000146,None,,,,,,,,,,,,,q,001,2021_Jul_08_1644,toilet,2021.1.3,99.94842662058429,
180,180,-4,4,1.0,,,,,1,0,1,0,1,27,83,31,,,,,,,,,,,,,,,,,,,,,,,652.0137225000071,None,652.0137225000071,None,651.5133835999877,None,j,0.9277631000149995,652.0137225000071,None,,,,,,,,,,,,,q,001,2021_Jul_08_1644,toilet,2021.1.3,99.94842662058429,
0,180,-4,4,1.03,,,,,1,0,1,0,1,28,84,18,,,,,,,,,,,,,,,,,,,,,,,653.9450298000011,None,653.9450298000011,None,653.4447066000139,None,j,0.8844447000010405,653.9450298000011,None,,,,,,,,,,,,,q,001,2021_Jul_08_1644,toilet,2021.1.3,99.94842662058429,
180,180,4,-4,1.0,,,,,1,0,1,0,1,29,85,38,,,,,,,,,,,,,,,,,,,,,,,655.8363835999917,None,655.8363835999917,None,655.335983500001,None,j,0.881170699984068,655.8363835999917,None,,,,,,,,,,,,,q,001,2021_Jul_08_1644,toilet,2021.1.3,99.94842662058429,
180,0,-4,4,1.06,,,,,1,0,1,0,1,30,86,47,,,,,,,,,,,,,,,,,,,,,,,657.7176704000158,None,657.7176704000158,None,657.2173327000055,None,j,1.1118764000129886,657.7176704000158,None,,,,,,,,,,,,,q,001,2021_Jul_08_1644,toilet,2021.1.3,99.94842662058429,
0,180,-4,4,1.06,,,,,1,0,1,0,1,31,87,19,,,,,,,,,,,,,,,,,,,,,,,659.8290258999914,None,659.8290258999914,None,659.3286789999984,None,f,1.0645585999882314,659.8290258999914,None,,,,,,,,,,,,,q,001,2021_Jul_08_1644,toilet,2021.1.3,99.94842662058429,
180,0,4,-4,1.0,,,,,1,0,1,0,1,32,88,52,,,,,,,,,,,,,,,,,,,,,,,661.9104286000074,None,661.9104286000074,None,661.4100904999941,None,f,0.9191142999916337,661.9104286000074,None,,,,,,,,,,,,,q,001,2021_Jul_08_1644,toilet,2021.1.3,99.94842662058429,
0,180,4,-4,1.0,,,,,1,0,1,0,1,33,89,24,,,,,,,,,,,,,,,,,,,,,,,663.8417359000014,None,663.8417359000014,None,663.3414741999877,None,f,0.6997320000082254,663.8417359000014,None,,,,,,,,,,,,,q,001,2021_Jul_08_1644,toilet,2021.1.3,99.94842662058429,
0,0,-4,4,0.85,,,,,1,0,1,0,1,34,90,0,,,,,,,,,,,,,,,,,,,,,,,665.5428960999998,None,665.5428960999998,None,665.0426324,None,f,0.6308354000211693,665.5428960999998,None,,,,,,,,,,,,,q,001,2021_Jul_08_1644,toilet,2021.1.3,99.94842662058429,
180,0,4,-4,0.85,,,,,1,0,1,0,1,35,91,49,,,,,,,,,,,,,,,,,,,,,,,667.1740056000126,None,667.1740056000126,None,666.6736914000066,None,j,0.7114571999991313,667.1740056000126,None,,,,,,,,,,,,,q,001,2021_Jul_08_1644,toilet,2021.1.3,99.94842662058429,
180,0,-4,4,0.85,,,,,1,0,1,0,1,36,92,42,,,,,,,,,,,,,,,,,,,,,,,668.8851594000007,None,668.8851594000007,None,668.3848272000032,None,f,1.6242866000102367,668.8851594000007,None,,,,,,,,,,,,,q,001,2021_Jul_08_1644,toilet,2021.1.3,99.94842662058429,
0,180,4,-4,1.15,,,,,1,0,1,0,1,37,93,27,,,,,,,,,,,,,,,,,,,,,,,671.5170172000071,None,671.5170172000071,None,671.0165886000032,None,f,0.9445713000022806,671.5170172000071,None,,,,,,,,,,,,,q,001,2021_Jul_08_1644,toilet,2021.1.3,99.94842662058429,
0,180,-4,4,0.94,,,,,1,0,1,0,1,38,94,15,,,,,,,,,,,,,,,,,,,,,,,673.4782772999897,None,673.4782772999897,None,672.9779512000096,None,f,1.0472032999969088,673.4782772999897,None,,,,,,,,,,,,,q,001,2021_Jul_08_1644,toilet,2021.1.3,99.94842662058429,
0,180,4,-4,1.03,,,,,1,0,1,0,1,39,95,25,,,,,,,,,,,,,,,,,,,,,,,675.5296681000036,None,675.5296681000036,None,675.0293630000087,None,f,0.979871199990157,675.5296681000036,None,,,,,,,,,,,,,q,001,2021_Jul_08_1644,toilet,2021.1.3,99.94842662058429,
0,0,4,-4,1.0,,,,,1,0,1,0,1,40,96,10,,,,,,,,,,,,,,,,,,,,,,,677.52102320001,None,677.52102320001,None,677.0206832000113,None,f,0.9885141999984626,677.52102320001,None,,,,,,,,,,,,,q,001,2021_Jul_08_1644,toilet,2021.1.3,99.94842662058429,
0,180,-4,4,1.0,,,,,1,0,1,0,1,41,97,17,,,,,,,,,,,,,,,,,,,,,,,679.5224512999994,None,679.5224512999994,None,679.0220485999889,None,j,0.6670243000262417,679.5224512999994,None,,,,,,,,,,,,,q,001,2021_Jul_08_1644,toilet,2021.1.3,99.94842662058429,
0,0,-4,4,1.15,,,,,1,0,1,0,1,42,98,6,,,,,,,,,,,,,,,,,,,,,,,681.2034981999896,None,681.2034981999896,None,680.703179300006,None,j,0.7619510999938939,681.2034981999896,None,,,,,,,,,,,,,q,001,2021_Jul_08_1644,toilet,2021.1.3,99.94842662058429,
180,180,4,-4,0.97,,,,,1,0,1,0,1,43,99,37,,,,,,,,,,,,,,,,,,,,,,,682.9647077000118,None,682.9647077000118,None,682.4643696999992,None,j,0.8248017999867443,682.9647077000118,None,,,,,,,,,,,,,q,001,2021_Jul_08_1644,toilet,2021.1.3,99.94842662058429,
180,180,-4,4,1.06,,,,,1,0,1,0,1,44,100,33,,,,,,,,,,,,,,,,,,,,,,,684.7959555000125,None,684.7959555000125,None,684.3056217000121,None,j,0.753683099988848,684.7959555000125,None,,,,,,,,,,,,,q,001,2021_Jul_08_1644,toilet,2021.1.3,99.94842662058429,
180,0,-4,4,1.15,,,,,1,0,1,0,1,45,101,48,,,,,,,,,,,,,,,,,,,,,,,686.5672455999884,None,686.5672455999884,None,686.0668528999959,None,j,0.5823933999927249,686.5672455999884,None,,,,,,,,,,,,,q,001,2021_Jul_08_1644,toilet,2021.1.3,99.94842662058429,
0,0,4,-4,1.06,,,,,1,0,1,0,1,46,102,12,,,,,,,,,,,,,,,,,,,,,,,688.1682407000044,None,688.1682407000044,None,687.6679360000126,None,f,0.5492338000040036,688.1682407000044,None,,,,,,,,,,,,,q,001,2021_Jul_08_1644,toilet,2021.1.3,99.94842662058429,
180,0,4,-4,1.03,,,,,1,0,1,0,1,47,103,53,,,,,,,,,,,,,,,,,,,,,,,689.7192939000088,None,689.7192939000088,None,689.2189550999901,None,j,0.6784611000039149,689.7192939000088,None,,,,,,,,,,,,,q,001,2021_Jul_08_1644,toilet,2021.1.3,99.94842662058429,
0,180,4,-4,0.97,,,,,1,0,1,0,1,48,104,23,,,,,,,,,,,,,,,,,,,,,,,691.4104434000037,None,691.4104434000037,None,690.9100993000029,None,f,0.9871620000049006,691.4104434000037,None,,,,,,,,,,,,,q,001,2021_Jul_08_1644,toilet,2021.1.3,99.94842662058429,
0,180,-4,4,0.85,,,,,1,0,1,0,1,49,105,14,,,,,,,,,,,,,,,,,,,,,,,693.4118772000074,None,693.4118772000074,None,692.9115405000048,None,f,0.6017116000002716,693.4118772000074,None,,,,,,,,,,,,,q,001,2021_Jul_08_1644,toilet,2021.1.3,99.94842662058429,
180,0,4,-4,0.94,,,,,1,0,1,0,1,50,106,50,,,,,,,,,,,,,,,,,,,,,,,695.022885399987,None,695.022885399987,None,694.522621799988,None,j,0.9265654000046197,695.022885399987,None,,,,,,,,,,,,,q,001,2021_Jul_08_1644,toilet,2021.1.3,99.94842662058429,
0,0,-4,4,0.94,,,,,1,0,1,0,1,51,107,1,,,,,,,,,,,,,,,,,,,,,,,696.9541977999907,None,696.9541977999907,None,696.4538576999912,None,f,0.5792174999951385,696.9541977999907,None,,,,,,,,,,,,,q,001,2021_Jul_08_1644,toilet,2021.1.3,99.94842662058429,
0,180,4,-4,0.94,,,,,1,0,1,0,1,52,108,22,,,,,,,,,,,,,,,,,,,,,,,698.5352703999961,None,698.5352703999961,None,698.0349644999951,None,j,0.6144483000098262,698.5352703999961,None,,,,,,,,,,,,,q,001,2021_Jul_08_1644,toilet,2021.1.3,99.94842662058429,
0,180,-4,4,1.15,,,,,1,0,1,0,1,53,109,20,,,,,,,,,,,,,,,,,,,,,,,700.1663842000125,None,700.1663842000125,None,699.6660364000127,None,j,1.0310766999900807,700.1663842000125,None,,,,,,,,,,,,,q,001,2021_Jul_08_1644,toilet,2021.1.3,99.94842662058429,
180,0,4,-4,1.06,,,,,1,0,1,0,1,54,110,54,,,,,,,,,,,,,,,,,,,,,,,702.2077985999931,None,702.2077985999931,None,701.70745300001,None,f,0.861767599999439,702.2077985999931,None,,,,,,,,,,,,,q,001,2021_Jul_08_1644,toilet,2021.1.3,99.94842662058429,
0,0,4,-4,1.15,,,,,1,0,1,0,1,55,111,13,,,,,,,,,,,,,,,,,,,,,,,704.0790287000127,None,704.0790287000127,None,703.5786918000085,None,f,0.9904544999881182,704.0790287000127,None,,,,,,,,,,,,,q,001,2021_Jul_08_1644,toilet,2021.1.3,99.94842662058429,
,,,,,,,,,1,0,1,0,,,,,,,,,,,,,,,,,,,,,,,,,,,,,,,,,,,,,705.0797084000078,None,space,14.133757400006289,705.0797084000078,None,,,,,,,q,001,2021_Jul_08_1644,toilet,2021.1.3,99.94842662058429,
180,180,4,-4,1.06,,,,,2,0,2,0,0,0,0,40,,,,,,,,,,,,,,,,,719.2293045000115,None,space,12.800135700003011,719.2293045000115,None,733.0386677999923,None,733.0386677999923,None,732.5383288000012,None,f,0.670762099995045,733.0386677999923,None,,,,,,,,,,,,,q,001,2021_Jul_08_1644,toilet,2021.1.3,99.94842662058429,
0,180,4,-4,1.0,,,,,2,0,2,0,0,1,1,24,,,,,,,,,,,,,,,,,,,,,,,734.7097977999947,None,734.7097977999947,None,734.2094664000033,None,f,0.7917777999828104,734.7097977999947,None,,,,,,,,,,,,,q,001,2021_Jul_08_1644,toilet,2021.1.3,99.94842662058429,
0,0,4,-4,0.85,,,,,2,0,2,0,0,2,2,7,,,,,,,,,,,,,,,,,,,,,,,736.5010175000061,None,736.5010175000061,None,736.0006773000059,None,j,1.6085329999914393,736.5010175000061,None,,,,,,,,,,,,,q,001,2021_Jul_08_1644,toilet,2021.1.3,99.94842662058429,
180,0,4,-4,0.97,,,,,2,0,2,0,0,3,3,51,,,,,,,,,,,,,,,,,,,,,,,739.112820600014,None,739.112820600014,None,738.6125418000156,None,j,0.9005996999912895,739.112820600014,None,,,,,,,,,,,,,q,001,2021_Jul_08_1644,toilet,2021.1.3,99.94842662058429,
0,180,-4,4,1.15,,,,,2,0,2,0,0,4,4,20,,,,,,,,,,,,,,,,,,,,,,,741.014076499996,None,741.014076499996,None,740.5137387000141,None,j,0.7434257999993861,741.014076499996,None,,,,,,,,,,,,,q,001,2021_Jul_08_1644,toilet,2021.1.3,99.94842662058429,
0,180,4,-4,0.94,,,,,2,0,2,0,0,5,5,22,,,,,,,,,,,,,,,,,,,,,,,742.7752749999927,None,742.7752749999927,None,742.2749302000157,None,f,0.7102184999966994,742.7752749999927,None,,,,,,,,,,,,,q,001,2021_Jul_08_1644,toilet,2021.1.3,99.94842662058429,
0,180,4,-4,0.85,,,,,2,0,2,0,0,6,6,21,,,,,,,,,,,,,,,,,,,,,,,744.4964197000081,None,744.4964197000081,None,743.9960996000154,None,j,0.717185999994399,744.4964197000081,None,,,,,,,,,,,,,q,001,2021_Jul_08_1644,toilet,2021.1.3,99.94842662058429,
180,180,-4,4,1.06,,,,,2,0,2,0,0,7,7,33,,,,,,,,,,,,,,,,,,,,,,,746.2176951000001,None,746.2176951000001,None,745.7173411000113,None,j,0.8517167999816593,746.2176951000001,None,,,,,,,,,,,,,q,001,2021_Jul_08_1644,toilet,2021.1.3,99.94842662058429,
180,0,4,-4,0.85,,,,,2,0,2,0,0,8,8,49,,,,,,,,,,,,,,,,,,,,,,,748.0688641000015,None,748.0688641000015,None,747.5685201000015,None,j,0.7285690999997314,748.0688641000015,None,,,,,,,,,,,,,q,001,2021_Jul_08_1644,toilet,2021.1.3,99.94842662058429,
0,0,-4,4,1.03,,,,,2,0,2,0,0,9,9,4,,,,,,,,,,,,,,,,,,,,,,,749.8100464000017,None,749.8100464000017,None,749.309702700004,None,f,0.5555854999984149,749.8100464000017,None,,,,,,,,,,,,,q,001,2021_Jul_08_1644,toilet,2021.1.3,99.94842662058429,
0,180,-4,4,1.06,,,,,2,0,2,0,0,10,10,19,,,,,,,,,,,,,,,,,,,,,,,751.3811073999968,None,751.3811073999968,None,750.8807652000105,None,j,0.7445011000090744,751.3811073999968,None,,,,,,,,,,,,,q,001,2021_Jul_08_1644,toilet,2021.1.3,99.94842662058429,
180,180,4,-4,0.85,,,,,2,0,2,0,0,11,11,35,,,,,,,,,,,,,,,,,,,,,,,753.1423725000059,None,753.1423725000059,None,752.6419692999916,None,j,0.6150946000125259,753.1423725000059,None,,,,,,,,,,,,,q,001,2021_Jul_08_1644,toilet,2021.1.3,99.94842662058429,
0,180,-4,4,0.85,,,,,2,0,2,0,0,12,12,14,,,,,,,,,,,,,,,,,,,,,,,754.773409299989,None,754.773409299989,None,754.2730685000133,None,f,0.6641150999930687,754.773409299989,None,,,,,,,,,,,,,q,001,2021_Jul_08_1644,toilet,2021.1.3,99.94842662058429,
180,180,4,-4,0.97,,,,,2,0,2,0,0,13,13,37,,,,,,,,,,,,,,,,,,,,,,,756.4445346000139,None,756.4445346000139,None,755.9441986999882,None,j,0.7371435000095516,756.4445346000139,None,,,,,,,,,,,,,q,001,2021_Jul_08_1644,toilet,2021.1.3,99.94842662058429,
180,0,-4,4,0.94,,,,,2,0,2,0,0,14,14,43,,,,,,,,,,,,,,,,,,,,,,,758.1957318999921,None,758.1957318999921,None,757.6953826000099,None,f,0.6978037999942899,758.1957318999921,None,,,,,,,,,,,,,q,001,2021_Jul_08_1644,toilet,2021.1.3,99.94842662058429,
180,180,-4,4,0.97,,,,,2,0,2,0,0,15,15,30,,,,,,,,,,,,,,,,,,,,,,,759.9069705000147,None,759.9069705000147,None,759.4066499999899,None,f,0.7305316000129096,759.9069705000147,None,,,,,,,,,,,,,q,001,2021_Jul_08_1644,toilet,2021.1.3,99.94842662058429,
0,0,-4,4,0.85,,,,,2,0,2,0,0,16,16,0,,,,,,,,,,,,,,,,,,,,,,,761.6480724000139,None,761.6480724000139,None,761.1478255999973,None,f,0.6533287999918684,761.6480724000139,None,,,,,,,,,,,,,q,001,2021_Jul_08_1644,toilet,2021.1.3,99.94842662058429,
0,0,-4,4,1.0,,,,,2,0,2,0,0,17,17,3,,,,,,,,,,,,,,,,,,,,,,,763.3092258000106,None,763.3092258000106,None,762.808889100008,None,f,1.2163542000052985,763.3092258000106,None,,,,,,,,,,,,,q,001,2021_Jul_08_1644,toilet,2021.1.3,99.94842662058429,
0,0,-4,4,0.94,,,,,2,0,2,0,0,18,18,1,,,,,,,,,,,,,,,,,,,,,,,765.5407505999901,None,765.5407505999901,None,765.0403723999916,None,f,0.6969721999776084,765.5407505999901,None,,,,,,,,,,,,,q,001,2021_Jul_08_1644,toilet,2021.1.3,99.94842662058429,
0,0,-4,4,1.06,,,,,2,0,2,0,0,19,19,5,,,,,,,,,,,,,,,,,,,,,,,767.2519482999924,None,767.2519482999924,None,766.7515405000013,None,j,0.8256036000093445,767.2519482999924,None,,,,,,,,,,,,,q,001,2021_Jul_08_1644,toilet,2021.1.3,99.94842662058429,
0,0,-4,4,0.97,,,,,2,0,2,0,0,20,20,2,,,,,,,,,,,,,,,,,,,,,,,769.0931136000145,None,769.0931136000145,None,768.5928536000138,None,f,0.680336499994155,769.0931136000145,None,,,,,,,,,,,,,q,001,2021_Jul_08_1644,toilet,2021.1.3,99.94842662058429,
0,180,4,-4,1.06,,,,,2,0,2,0,0,21,21,26,,,,,,,,,,,,,,,,,,,,,,,770.7742595000018,None,770.7742595000018,None,770.2739156000025,None,f,0.9353705999965314,770.7742595000018,None,,,,,,,,,,,,,q,001,2021_Jul_08_1644,toilet,2021.1.3,99.94842662058429,
0,180,-4,4,0.94,,,,,2,0,2,0,0,22,22,15,,,,,,,,,,,,,,,,,,,,,,,772.7255796999962,None,772.7255796999962,None,772.225266399997,None,f,1.1119315999967512,772.7255796999962,None,,,,,,,,,,,,,q,001,2021_Jul_08_1644,toilet,2021.1.3,99.94842662058429,
0,0,4,-4,1.15,,,,,2,0,2,0,0,23,23,13,,,,,,,,,,,,,,,,,,,,,,,774.8471085999918,None,774.8471085999918,None,774.3467158999993,None,f,0.5425759000063408,774.8471085999918,None,,,,,,,,,,,,,q,001,2021_Jul_08_1644,toilet,2021.1.3,99.94842662058429,
0,0,4,-4,1.03,,,,,2,0,2,0,0,24,24,11,,,,,,,,,,,,,,,,,,,,,,,776.4080773000023,None,776.4080773000023,None,775.9077431999904,None,f,1.0773402000195347,776.4080773000023,None,,,,,,,,,,,,,q,001,2021_Jul_08_1644,toilet,2021.1.3,99.94842662058429,
180,0,-4,4,1.15,,,,,2,0,2,0,0,25,25,48,,,,,,,,,,,,,,,,,,,,,,,778.4895060000126,None,778.4895060000126,None,777.9891544000129,None,j,0.7719375999877229,778.4895060000126,None,,,,,,,,,,,,,q,001,2021_Jul_08_1644,toilet,2021.1.3,99.94842662058429,
0,180,-4,4,0.97,,,,,2,0,2,0,0,26,26,16,,,,,,,,,,,,,,,,,,,,,,,780.2607266000123,None,780.2607266000123,None,779.7603536999959,None,f,0.9848722000024281,780.2607266000123,None,,,,,,,,,,,,,q,001,2021_Jul_08_1644,toilet,2021.1.3,99.94842662058429,
180,0,4,-4,1.06,,,,,2,0,2,0,0,27,27,54,,,,,,,,,,,,,,,,,,,,,,,782.2620527000108,None,782.2620527000108,None,781.7618041000096,None,f,1.0793508999922778,782.2620527000108,None,,,,,,,,,,,,,q,001,2021_Jul_08_1644,toilet,2021.1.3,99.94842662058429,
180,180,-4,4,0.85,,,,,2,0,2,0,0,28,28,28,,,,,,,,,,,,,,,,,,,,,,,784.3434577000153,None,784.3434577000153,None,783.8431486999907,None,f,0.7740488999988884,784.3434577000153,None,,,,,,,,,,,,,q,001,2021_Jul_08_1644,toilet,2021.1.3,99.94842662058429,
180,0,-4,4,0.97,,,,,2,0,2,0,0,29,29,44,,,,,,,,,,,,,,,,,,,,,,,786.1246666999941,None,786.1246666999941,None,785.6243297999899,None,f,0.7688522999815177,786.1246666999941,None,,,,,,,,,,,,,q,001,2021_Jul_08_1644,toilet,2021.1.3,99.94842662058429,
0,180,4,-4,1.15,,,,,2,0,2,0,0,30,30,27,,,,,,,,,,,,,,,,,,,,,,,787.9058787999966,None,787.9058787999966,None,787.4055335000157,None,f,0.6355592999898363,787.9058787999966,None,,,,,,,,,,,,,q,001,2021_Jul_08_1644,toilet,2021.1.3,99.94842662058429,
180,180,4,-4,0.94,,,,,2,0,2,0,0,31,31,36,,,,,,,,,,,,,,,,,,,,,,,789.5570049000089,None,789.5570049000089,None,789.0567462999898,None,j,0.6004878999956418,789.5570049000089,None,,,,,,,,,,,,,q,001,2021_Jul_08_1644,toilet,2021.1.3,99.94842662058429,
180,0,-4,4,1.03,,,,,2,0,2,0,0,32,32,46,,,,,,,,,,,,,,,,,,,,,,,791.1680722000019,None,791.1680722000019,None,790.667751800007,None,j,1.2453844000119716,791.1680722000019,None,,,,,,,,,,,,,q,001,2021_Jul_08_1644,toilet,2021.1.3,99.94842662058429,
180,180,-4,4,1.03,,,,,2,0,2,0,0,33,33,32,,,,,,,,,,,,,,,,,,,,,,,793.4196138000116,None,793.4196138000116,None,792.9192796999996,None,j,0.6740224999957718,793.4196138000116,None,,,,,,,,,,,,,q,001,2021_Jul_08_1644,toilet,2021.1.3,99.94842662058429,
0,180,4,-4,0.97,,,,,2,0,2,0,0,34,34,23,,,,,,,,,,,,,,,,,,,,,,,795.110768100014,None,795.110768100014,None,794.6104226000025,None,j,0.8708208999887574,795.110768100014,None,,,,,,,,,,,,,q,001,2021_Jul_08_1644,toilet,2021.1.3,99.94842662058429,
0,0,-4,4,1.15,,,,,2,0,2,0,0,35,35,6,,,,,,,,,,,,,,,,,,,,,,,796.9820736999973,None,796.9820736999973,None,796.4816864999884,None,j,0.8715903999982402,796.9820736999973,None,,,,,,,,,,,,,q,001,2021_Jul_08_1644,toilet,2021.1.3,99.94842662058429,
180,180,-4,4,1.0,,,,,2,0,2,0,0,36,36,31,,,,,,,,,,,,,,,,,,,,,,,798.8633122000028,None,798.8633122000028,None,798.3629684000043,None,j,1.2461000000184868,798.8633122000028,None,,,,,,,,,,,,,q,001,2021_Jul_08_1644,toilet,2021.1.3,99.94842662058429,
180,0,4,-4,0.94,,,,,2,0,2,0,0,37,37,50,,,,,,,,,,,,,,,,,,,,,,,801.1148348000133,None,801.1148348000133,None,800.6144923999964,None,j,0.898823600000469,801.1148348000133,None,,,,,,,,,,,,,q,001,2021_Jul_08_1644,toilet,2021.1.3,99.94842662058429,
180,180,4,-4,1.0,,,,,2,0,2,0,0,38,38,38,,,,,,,,,,,,,,,,,,,,,,,803.0262097000086,None,803.0262097000086,None,802.5257886000036,None,f,1.4192827999941073,803.0262097000086,None,,,,,,,,,,,,,q,001,2021_Jul_08_1644,toilet,2021.1.3,99.94842662058429,
0,180,-4,4,1.03,,,,,2,0,2,0,0,39,39,18,,,,,,,,,,,,,,,,,,,,,,,805.4578024999937,None,805.4578024999937,None,804.9574365000008,None,j,1.371680499985814,805.4578024999937,None,,,,,,,,,,,,,q,001,2021_Jul_08_1644,toilet,2021.1.3,99.94842662058429,
0,0,4,-4,0.97,,,,,2,0,2,0,0,40,40,9,,,,,,,,,,,,,,,,,,,,,,,807.8293897999974,None,807.8293897999974,None,807.3290553000115,None,f,0.6001008000166621,807.8293897999974,None,,,,,,,,,,,,,q,001,2021_Jul_08_1644,toilet,2021.1.3,99.94842662058429,
0,180,-4,4,1.0,,,,,2,0,2,0,0,41,41,17,,,,,,,,,,,,,,,,,,,,,,,809.4404827000108,None,809.4404827000108,None,808.9401715999993,None,f,0.82899899999029,809.4404827000108,None,,,,,,,,,,,,,q,001,2021_Jul_08_1644,toilet,2021.1.3,99.94842662058429,
180,0,4,-4,1.15,,,,,2,0,2,0,0,42,42,55,,,,,,,,,,,,,,,,,,,,,,,811.2818191999977,None,811.2818191999977,None,810.7813912999991,None,f,0.6517776000255253,811.2818191999977,None,,,,,,,,,,,,,q,001,2021_Jul_08_1644,toilet,2021.1.3,99.94842662058429,
0,0,4,-4,1.0,,,,,2,0,2,0,0,43,43,10,,,,,,,,,,,,,,,,,,,,,,,812.9528666000115,None,812.9528666000115,None,812.452615599992,None,j,0.8205356999824289,812.9528666000115,None,,,,,,,,,,,,,q,001,2021_Jul_08_1644,toilet,2021.1.3,99.94842662058429,
180,0,-4,4,0.85,,,,,2,0,2,0,0,44,44,42,,,,,,,,,,,,,,,,,,,,,,,814.7741091999924,None,814.7741091999924,None,814.2737302999885,None,f,0.615557599987369,814.7741091999924,None,,,,,,,,,,,,,q,001,2021_Jul_08_1644,toilet,2021.1.3,99.94842662058429,
180,0,4,-4,1.0,,,,,2,0,2,0,0,45,45,52,,,,,,,,,,,,,,,,,,,,,,,816.4052024999983,None,816.4052024999983,None,815.9048682000139,None,j,0.6162126999988686,816.4052024999983,None,,,,,,,,,,,,,q,001,2021_Jul_08_1644,toilet,2021.1.3,99.94842662058429,
180,180,4,-4,1.15,,,,,2,0,2,0,0,46,46,41,,,,,,,,,,,,,,,,,,,,,,,818.0263903999876,None,818.0263903999876,None,817.5259649000072,None,f,0.4991687999863643,818.0263903999876,None,,,,,,,,,,,,,q,001,2021_Jul_08_1644,toilet,2021.1.3,99.94842662058429,
0,0,4,-4,1.06,,,,,2,0,2,0,0,47,47,12,,,,,,,,,,,,,,,,,,,,,,,819.5274080999952,None,819.5274080999952,None,819.0270708999888,None,f,0.6141165000153705,819.5274080999952,None,,,,,,,,,,,,,q,001,2021_Jul_08_1644,toilet,2021.1.3,99.94842662058429,
180,180,-4,4,0.94,,,,,2,0,2,0,0,48,48,29,,,,,,,,,,,,,,,,,,,,,,,821.1584257000068,None,821.1584257000068,None,820.6580805999984,None,f,0.599057300016284,821.1584257000068,None,,,,,,,,,,,,,q,001,2021_Jul_08_1644,toilet,2021.1.3,99.94842662058429,
180,180,4,-4,1.03,,,,,2,0,2,0,0,49,49,39,,,,,,,,,,,,,,,,,,,,,,,822.7595100000035,None,822.7595100000035,None,822.259183999995,None,f,0.8859356000029948,822.7595100000035,None,,,,,,,,,,,,,q,001,2021_Jul_08_1644,toilet,2021.1.3,99.94842662058429,
180,0,4,-4,1.03,,,,,2,0,2,0,0,50,50,53,,,,,,,,,,,,,,,,,,,,,,,824.66080469999,None,824.66080469999,None,824.1604712000117,None,f,0.8885908999945968,824.66080469999,None,,,,,,,,,,,,,q,001,2021_Jul_08_1644,toilet,2021.1.3,99.94842662058429,
0,180,4,-4,1.03,,,,,2,0,2,0,0,51,51,25,,,,,,,,,,,,,,,,,,,,,,,826.5521675999917,None,826.5521675999917,None,826.0518247,None,f,0.6453867999953218,826.5521675999917,None,,,,,,,,,,,,,q,001,2021_Jul_08_1644,toilet,2021.1.3,99.94842662058429,
180,0,-4,4,1.06,,,,,2,0,2,0,0,52,52,47,,,,,,,,,,,,,,,,,,,,,,,828.2132194000005,None,828.2132194000005,None,827.7128728000098,None,f,1.0322748000035062,828.2132194000005,None,,,,,,,,,,,,,q,001,2021_Jul_08_1644,toilet,2021.1.3,99.94842662058429,
180,0,-4,4,1.0,,,,,2,0,2,0,0,53,53,45,,,,,,,,,,,,,,,,,,,,,,,830.2546007999917,None,830.2546007999917,None,829.7542533999949,None,f,0.6870596999942791,830.2546007999917,None,,,,,,,,,,,,,q,001,2021_Jul_08_1644,toilet,2021.1.3,99.94842662058429,
180,180,-4,4,1.15,,,,,2,0,2,0,0,54,54,34,,,,,,,,,,,,,,,,,,,,,,,831.9557516000059,None,831.9557516000059,None,831.4554143999994,None,j,0.6656888000143226,831.9557516000059,None,,,,,,,,,,,,,q,001,2021_Jul_08_1644,toilet,2021.1.3,99.94842662058429,
0,0,4,-4,0.94,,,,,2,0,2,0,0,55,55,8,,,,,,,,,,,,,,,,,,,,,,,833.626897899987,None,833.626897899987,None,833.1365477000072,None,f,0.9465405000082683,833.626897899987,None,,,,,,,,,,,,,q,001,2021_Jul_08_1644,toilet,2021.1.3,99.94842662058429,
180,0,4,-4,1.15,,,,,2,0,2,0,1,0,56,55,,,,,,,,,,,,,,,,,,,,,,,835.5782043999934,None,835.5782043999934,None,835.0778690000006,None,f,0.5471867999876849,835.5782043999934,None,,,,,,,,,,,,,q,001,2021_Jul_08_1644,toilet,2021.1.3,99.94842662058429,
0,180,4,-4,0.94,,,,,2,0,2,0,1,1,57,22,,,,,,,,,,,,,,,,,,,,,,,837.1292624000052,None,837.1292624000052,None,836.6289204999921,None,j,0.8041661000170279,837.1292624000052,None,,,,,,,,,,,,,q,001,2021_Jul_08_1644,toilet,2021.1.3,99.94842662058429,
0,180,4,-4,0.97,,,,,2,0,2,0,1,2,58,23,,,,,,,,,,,,,,,,,,,,,,,838.9404840999923,None,838.9404840999923,None,838.440111200005,None,j,0.7851411000010557,838.9404840999923,None,,,,,,,,,,,,,q,001,2021_Jul_08_1644,toilet,2021.1.3,99.94842662058429,
180,0,-4,4,0.85,,,,,2,0,2,0,1,3,59,42,,,,,,,,,,,,,,,,,,,,,,,840.7517927000008,None,840.7517927000008,None,840.2513735000102,None,f,0.6217845999926794,840.7517927000008,None,,,,,,,,,,,,,q,001,2021_Jul_08_1644,toilet,2021.1.3,99.94842662058429,
180,0,-4,4,1.06,,,,,2,0,2,0,1,4,60,47,,,,,,,,,,,,,,,,,,,,,,,842.3828222000157,None,842.3828222000157,None,841.8825533000054,None,j,0.7345698999997694,842.3828222000157,None,,,,,,,,,,,,,q,001,2021_Jul_08_1644,toilet,2021.1.3,99.94842662058429,
180,180,4,-4,1.15,,,,,2,0,2,0,1,5,61,41,,,,,,,,,,,,,,,,,,,,,,,844.1240016999946,None,844.1240016999946,None,843.6236630000058,None,f,0.7215009999927133,844.1240016999946,None,,,,,,,,,,,,,q,001,2021_Jul_08_1644,toilet,2021.1.3,99.94842662058429,
0,0,-4,4,0.94,,,,,2,0,2,0,1,6,62,1,,,,,,,,,,,,,,,,,,,,,,,845.8551737999951,None,845.8551737999951,None,845.3548318000103,None,f,0.5744159999885596,845.8551737999951,None,,,,,,,,,,,,,q,001,2021_Jul_08_1644,toilet,2021.1.3,99.94842662058429,
0,180,4,-4,1.06,,,,,2,0,2,0,1,7,63,26,,,,,,,,,,,,,,,,,,,,,,,847.4462862999935,None,847.4462862999935,None,846.9459127000009,None,f,0.7271814999985509,847.4462862999935,None,,,,,,,,,,,,,q,001,2021_Jul_08_1644,toilet,2021.1.3,99.94842662058429,
0,0,4,-4,1.15,,,,,2,0,2,0,1,8,64,13,,,,,,,,,,,,,,,,,,,,,,,849.1775104000117,None,849.1775104000117,None,848.6771805000026,None,f,1.1078674000164028,849.1775104000117,None,,,,,,,,,,,,,q,001,2021_Jul_08_1644,toilet,2021.1.3,99.94842662058429,
0,180,-4,4,0.85,,,,,2,0,2,0,1,9,65,14,,,,,,,,,,,,,,,,,,,,,,,851.2888620000158,None,851.2888620000158,None,850.7885319000052,None,f,1.124855000001844,851.2888620000158,None,,,,,,,,,,,,,q,001,2021_Jul_08_1644,toilet,2021.1.3,99.94842662058429,
180,0,-4,4,1.03,,,,,2,0,2,0,1,10,66,46,,,,,,,,,,,,,,,,,,,,,,,853.4403252000047,None,853.4403252000047,None,852.9399864000152,None,f,0.7811402000079397,853.4403252000047,None,,,,,,,,,,,,,q,001,2021_Jul_08_1644,toilet,2021.1.3,99.94842662058429,
180,180,4,-4,1.03,,,,,2,0,2,0,1,11,67,39,,,,,,,,,,,,,,,,,,,,,,,855.2315673000121,None,855.2315673000121,None,854.7311998000077,None,f,0.686036500002956,855.2315673000121,None,,,,,,,,,,,,,q,001,2021_Jul_08_1644,toilet,2021.1.3,99.94842662058429,
180,0,4,-4,1.03,,,,,2,0,2,0,1,12,68,53,,,,,,,,,,,,,,,,,,,,,,,856.9327300000004,None,856.9327300000004,None,856.4324447000108,None,j,0.744675299996743,856.9327300000004,None,,,,,,,,,,,,,q,001,2021_Jul_08_1644,toilet,2021.1.3,99.94842662058429,
0,180,-4,4,1.06,,,,,2,0,2,0,1,13,69,19,,,,,,,,,,,,,,,,,,,,,,,858.6838736000063,None,858.6838736000063,None,858.183535499993,None,j,1.2336188000044785,858.6838736000063,None,,,,,,,,,,,,,q,001,2021_Jul_08_1644,toilet,2021.1.3,99.94842662058429,
0,180,-4,4,0.97,,,,,2,0,2,0,1,14,70,16,,,,,,,,,,,,,,,,,,,,,,,860.9354060000041,None,860.9354060000041,None,860.4350626000087,None,f,1.510074000019813,860.9354060000041,None,,,,,,,,,,,,,q,001,2021_Jul_08_1644,toilet,2021.1.3,99.94842662058429,
180,0,-4,4,1.15,,,,,2,0,2,0,1,15,71,48,,,,,,,,,,,,,,,,,,,,,,,863.4571261999954,None,863.4571261999954,None,862.9568463999894,None,j,1.2443544999987353,863.4571261999954,None,,,,,,,,,,,,,q,001,2021_Jul_08_1644,toilet,2021.1.3,99.94842662058429,
0,0,-4,4,1.03,,,,,2,0,2,0,1,16,72,4,,,,,,,,,,,,,,,,,,,,,,,865.7086396999948,None,865.7086396999948,None,865.2083042000013,None,f,1.2807618999795523,865.7086396999948,None,,,,,,,,,,,,,q,001,2021_Jul_08_1644,toilet,2021.1.3,99.94842662058429,
180,180,4,-4,1.0,,,,,2,0,2,0,1,17,73,38,,,,,,,,,,,,,,,,,,,,,,,867.9901879999961,None,867.9901879999961,None,867.4898497000104,None,f,1.2232630000216886,867.9901879999961,None,,,,,,,,,,,,,q,001,2021_Jul_08_1644,toilet,2021.1.3,99.94842662058429,
180,180,-4,4,1.03,,,,,2,0,2,0,1,18,74,32,,,,,,,,,,,,,,,,,,,,,,,870.2318023999978,None,870.2318023999978,None,869.7313672000018,None,j,1.413620399980573,870.2318023999978,None,,,,,,,,,,,,,q,001,2021_Jul_08_1644,toilet,2021.1.3,99.94842662058429,
0,180,-4,4,1.15,,,,,2,0,2,0,1,19,75,20,,,,,,,,,,,,,,,,,,,,,,,872.6633579999907,None,872.6633579999907,None,872.1630165000097,None,j,1.014116499980446,872.6633579999907,None,,,,,,,,,,,,,q,001,2021_Jul_08_1644,toilet,2021.1.3,99.94842662058429,
180,0,4,-4,0.85,,,,,2,0,2,0,1,20,76,49,,,,,,,,,,,,,,,,,,,,,,,874.6847257000045,None,874.6847257000045,None,874.184391399991,None,j,2.0807117999938782,874.6847257000045,None,,,,,,,,,,,,,q,001,2021_Jul_08_1644,toilet,2021.1.3,99.94842662058429,
180,180,-4,4,0.94,,,,,2,0,2,0,1,21,77,29,,,,,,,,,,,,,,,,,,,,,,,877.7769114999974,None,877.7769114999974,None,877.2764871999971,None,f,0.796560299990233,877.7769114999974,None,,,,,,,,,,,,,q,001,2021_Jul_08_1644,toilet,2021.1.3,99.94842662058429,
180,0,-4,4,1.0,,,,,2,0,2,0,1,22,78,45,,,,,,,,,,,,,,,,,,,,,,,879.5880540999933,None,879.5880540999933,None,879.0877095999895,None,f,0.7934336999896914,879.5880540999933,None,,,,,,,,,,,,,q,001,2021_Jul_08_1644,toilet,2021.1.3,99.94842662058429,
0,0,4,-4,0.94,,,,,2,0,2,0,1,23,79,8,,,,,,,,,,,,,,,,,,,,,,,881.3892743999895,None,881.3892743999895,None,880.8889314999979,None,j,0.8643506999942474,881.3892743999895,None,,,,,,,,,,,,,q,001,2021_Jul_08_1644,toilet,2021.1.3,99.94842662058429,
0,0,-4,4,1.15,,,,,2,0,2,0,1,24,80,6,,,,,,,,,,,,,,,,,,,,,,,883.270548600005,None,883.270548600005,None,882.7702120000031,None,j,0.535100400011288,883.270548600005,None,,,,,,,,,,,,,q,001,2021_Jul_08_1644,toilet,2021.1.3,99.94842662058429,
0,0,4,-4,1.0,,,,,2,0,2,0,1,25,81,10,,,,,,,,,,,,,,,,,,,,,,,884.8216793999891,None,884.8216793999891,None,884.3212674999959,None,f,0.7277572999882977,884.8216793999891,None,,,,,,,,,,,,,q,001,2021_Jul_08_1644,toilet,2021.1.3,99.94842662058429,
0,0,4,-4,1.06,,,,,2,0,2,0,1,26,82,12,,,,,,,,,,,,,,,,,,,,,,,886.5627850999881,None,886.5627850999881,None,886.062519900006,None,f,0.7787297999893781,886.5627850999881,None,,,,,,,,,,,,,q,001,2021_Jul_08_1644,toilet,2021.1.3,99.94842662058429,
180,180,-4,4,1.0,,,,,2,0,2,0,1,27,83,31,,,,,,,,,,,,,,,,,,,,,,,888.3439885000116,None,888.3439885000116,None,887.8436438000062,None,j,1.1735243999864906,888.3439885000116,None,,,,,,,,,,,,,q,001,2021_Jul_08_1644,toilet,2021.1.3,99.94842662058429,
180,180,-4,4,0.97,,,,,2,0,2,0,1,28,84,30,,,,,,,,,,,,,,,,,,,,,,,890.5354756999877,None,890.5354756999877,None,890.0351332999999,None,f,1.3660829000000376,890.5354756999877,None,,,,,,,,,,,,,q,001,2021_Jul_08_1644,toilet,2021.1.3,99.94842662058429,
0,180,4,-4,1.15,,,,,2,0,2,0,1,29,85,27,,,,,,,,,,,,,,,,,,,,,,,892.9171811999986,None,892.9171811999986,None,892.4167552000144,None,f,1.7201742999895941,892.9171811999986,None,,,,,,,,,,,,,q,001,2021_Jul_08_1644,toilet,2021.1.3,99.94842662058429,
0,0,-4,4,1.06,,,,,2,0,2,0,1,30,86,5,,,,,,,,,,,,,,,,,,,,,,,895.6389390999975,None,895.6389390999975,None,895.1385997000034,None,j,1.3666770000127144,895.6389390999975,None,,,,,,,,,,,,,q,001,2021_Jul_08_1644,toilet,2021.1.3,99.94842662058429,
180,180,4,-4,1.06,,,,,2,0,2,0,1,31,87,40,,,,,,,,,,,,,,,,,,,,,,,898.020552300004,None,898.020552300004,None,897.5202147999953,None,f,0.8888734000211116,898.020552300004,None,,,,,,,,,,,,,q,001,2021_Jul_08_1644,toilet,2021.1.3,99.94842662058429,
180,0,4,-4,0.94,,,,,2,0,2,0,1,32,88,50,,,,,,,,,,,,,,,,,,,,,,,899.9218414000061,None,899.9218414000061,None,899.4215980000154,None,j,0.7155211000062991,899.9218414000061,None,,,,,,,,,,,,,q,001,2021_Jul_08_1644,toilet,2021.1.3,99.94842662058429,
0,0,-4,4,0.97,,,,,2,0,2,0,1,33,89,2,,,,,,,,,,,,,,,,,,,,,,,901.6430148000072,None,901.6430148000072,None,901.1427636000153,None,f,0.6744172000035178,901.6430148000072,None,,,,,,,,,,,,,q,001,2021_Jul_08_1644,toilet,2021.1.3,99.94842662058429,
0,180,-4,4,0.94,,,,,2,0,2,0,1,34,90,15,,,,,,,,,,,,,,,,,,,,,,,903.3241795999929,None,903.3241795999929,None,902.8238094999979,None,f,0.7692599000001792,903.3241795999929,None,,,,,,,,,,,,,q,001,2021_Jul_08_1644,toilet,2021.1.3,99.94842662058429,
180,0,-4,4,0.94,,,,,2,0,2,0,1,35,91,43,,,,,,,,,,,,,,,,,,,,,,,905.0953535000153,None,905.0953535000153,None,904.5950112999999,None,f,0.8220704999985173,905.0953535000153,None,,,,,,,,,,,,,q,001,2021_Jul_08_1644,toilet,2021.1.3,99.94842662058429,
180,180,4,-4,0.94,,,,,2,0,2,0,1,36,92,36,,,,,,,,,,,,,,,,,,,,,,,906.9166677999892,None,906.9166677999892,None,906.4162463000102,None,j,0.9849539999850094,906.9166677999892,None,,,,,,,,,,,,,q,001,2021_Jul_08_1644,toilet,2021.1.3,99.94842662058429,
180,180,-4,4,1.15,,,,,2,0,2,0,1,37,93,34,,,,,,,,,,,,,,,,,,,,,,,908.9179447999923,None,908.9179447999923,None,908.4176390999928,None,j,0.9515124000026844,908.9179447999923,None,,,,,,,,,,,,,q,001,2021_Jul_08_1644,toilet,2021.1.3,99.94842662058429,
0,0,4,-4,1.03,,,,,2,0,2,0,1,38,94,11,,,,,,,,,,,,,,,,,,,,,,,910.8692677000072,None,910.8692677000072,None,910.3689381000004,None,f,0.9840977000130806,910.8692677000072,None,,,,,,,,,,,,,q,001,2021_Jul_08_1644,toilet,2021.1.3,99.94842662058429,
0,0,4,-4,0.97,,,,,2,0,2,0,1,39,95,9,,,,,,,,,,,,,,,,,,,,,,,912.8606167999969,None,912.8606167999969,None,912.3602774000028,None,j,1.2169776000082493,912.8606167999969,None,,,,,,,,,,,,,q,001,2021_Jul_08_1644,toilet,2021.1.3,99.94842662058429,
0,180,4,-4,0.85,,,,,2,0,2,0,1,40,96,21,,,,,,,,,,,,,,,,,,,,,,,915.0922091999964,None,915.0922091999964,None,914.5918710000115,None,j,1.0011686999932863,915.0922091999964,None,,,,,,,,,,,,,q,001,2021_Jul_08_1644,toilet,2021.1.3,99.94842662058429,
180,0,4,-4,1.0,,,,,2,0,2,0,1,41,97,52,,,,,,,,,,,,,,,,,,,,,,,917.0934906000039,None,917.0934906000039,None,916.5931454999954,None,f,1.1921532000123989,917.0934906000039,None,,,,,,,,,,,,,q,001,2021_Jul_08_1644,toilet,2021.1.3,99.94842662058429,
0,180,-4,4,1.03,,,,,2,0,2,0,1,42,98,18,,,,,,,,,,,,,,,,,,,,,,,919.2949845000112,None,919.2949845000112,None,918.7946422999958,None,f,2.014502400008496,919.2949845000112,None,,,,,,,,,,,,,q,001,2021_Jul_08_1644,toilet,2021.1.3,99.94842662058429,
0,180,-4,4,1.0,,,,,2,0,2,0,1,43,99,17,,,,,,,,,,,,,,,,,,,,,,,922.3271083,None,922.3271083,None,921.8267869999981,None,j,1.0463617999921553,922.3271083,None,,,,,,,,,,,,,q,001,2021_Jul_08_1644,toilet,2021.1.3,99.94842662058429,
180,180,-4,4,1.06,,,,,2,0,2,0,1,44,100,33,,,,,,,,,,,,,,,,,,,,,,,924.3784238999942,None,924.3784238999942,None,923.8880972999905,None,j,0.8190134999749716,924.3784238999942,None,,,,,,,,,,,,,q,001,2021_Jul_08_1644,toilet,2021.1.3,99.94842662058429,
180,180,4,-4,0.97,,,,,2,0,2,0,1,45,101,37,,,,,,,,,,,,,,,,,,,,,,,926.1996624000021,None,926.1996624000021,None,925.6993261000025,None,f,0.9178287000104319,926.1996624000021,None,,,,,,,,,,,,,q,001,2021_Jul_08_1644,toilet,2021.1.3,99.94842662058429,
0,0,-4,4,0.85,,,,,2,0,2,0,1,46,102,0,,,,,,,,,,,,,,,,,,,,,,,928.120966699993,None,928.120966699993,None,927.6206294000149,None,f,0.7725842999934684,928.120966699993,None,,,,,,,,,,,,,q,001,2021_Jul_08_1644,toilet,2021.1.3,99.94842662058429,
180,0,4,-4,1.06,,,,,2,0,2,0,1,47,103,54,,,,,,,,,,,,,,,,,,,,,,,929.9122787000088,None,929.9122787000088,None,929.4119222000008,None,f,0.6132923999975901,929.9122787000088,None,,,,,,,,,,,,,q,001,2021_Jul_08_1644,toilet,2021.1.3,99.94842662058429,
0,180,4,-4,1.0,,,,,2,0,2,0,1,48,104,24,,,,,,,,,,,,,,,,,,,,,,,931.5432909000083,None,931.5432909000083,None,931.0429478000151,None,f,0.6461361999972723,931.5432909000083,None,,,,,,,,,,,,,q,001,2021_Jul_08_1644,toilet,2021.1.3,99.94842662058429,
180,0,-4,4,0.97,,,,,2,0,2,0,1,49,105,44,,,,,,,,,,,,,,,,,,,,,,,933.1944068000012,None,933.1944068000012,None,932.6940716000099,None,f,0.7872164000000339,933.1944068000012,None,,,,,,,,,,,,,q,001,2021_Jul_08_1644,toilet,2021.1.3,99.94842662058429,
0,180,4,-4,1.03,,,,,2,0,2,0,1,50,106,25,,,,,,,,,,,,,,,,,,,,,,,934.9956254000135,None,934.9956254000135,None,934.4952885000093,None,f,0.8577397000044584,934.9956254000135,None,,,,,,,,,,,,,q,001,2021_Jul_08_1644,toilet,2021.1.3,99.94842662058429,
0,0,4,-4,0.85,,,,,2,0,2,0,1,51,107,7,,,,,,,,,,,,,,,,,,,,,,,936.8569614999869,None,936.8569614999869,None,936.3565444000124,None,j,0.7084752999944612,936.8569614999869,None,,,,,,,,,,,,,q,001,2021_Jul_08_1644,toilet,2021.1.3,99.94842662058429,
180,180,4,-4,0.85,,,,,2,0,2,0,1,52,108,35,,,,,,,,,,,,,,,,,,,,,,,938.5780849000148,None,938.5780849000148,None,938.0777099000115,None,j,0.6192863000032958,938.5780849000148,None,,,,,,,,,,,,,q,001,2021_Jul_08_1644,toilet,2021.1.3,99.94842662058429,
180,180,-4,4,0.85,,,,,2,0,2,0,1,53,109,28,,,,,,,,,,,,,,,,,,,,,,,940.1991556000139,None,940.1991556000139,None,939.6988173999998,None,f,0.5982083999842871,940.1991556000139,None,,,,,,,,,,,,,q,001,2021_Jul_08_1644,toilet,2021.1.3,99.94842662058429,
180,0,4,-4,0.97,,,,,2,0,2,0,1,54,110,51,,,,,,,,,,,,,,,,,,,,,,,941.8002469000057,None,941.8002469000057,None,941.2999067000055,None,j,0.5972483000077773,941.8002469000057,None,,,,,,,,,,,,,q,001,2021_Jul_08_1644,toilet,2021.1.3,99.94842662058429,
0,0,-4,4,1.0,,,,,2,0,2,0,1,55,111,3,,,,,,,,,,,,,,,,,,,,,,,943.4113327999949,None,943.4113327999949,None,942.9109874000133,None,f,0.5381132000184152,943.4113327999949,None,,,,,,,,,,,,,q,001,2021_Jul_08_1644,toilet,2021.1.3,99.94842662058429,
,,,,,,,,,2,0,2,0,,,,,,,,,,,,,,,,,,,,,,,,,,,,,,,,,,,,,943.971778600011,None,space,25.561646300018765,943.971778600011,None,,,,,,,q,001,2021_Jul_08_1644,toilet,2021.1.3,99.94842662058429,
180,180,-4,4,1.0,,,,,3,0,3,0,0,0,0,31,,,,,,,,,,,,,,,,,969.5490640999924,None,space,7.296291699982248,969.5490640999924,None,977.864702699997,None,977.864702699997,None,977.3643640000082,None,j,0.7408950000244658,977.864702699997,None,,,,,,,,,,,,,q,001,2021_Jul_08_1644,toilet,2021.1.3,99.94842662058429,
0,180,-4,4,0.97,,,,,3,0,3,0,0,1,1,16,,,,,,,,,,,,,,,,,,,,,,,979.6158928000077,None,979.6158928000077,None,979.11555029999,None,f,0.9095320999913383,979.6158928000077,None,,,,,,,,,,,,,q,001,2021_Jul_08_1644,toilet,2021.1.3,99.94842662058429,
180,180,4,-4,0.85,,,,,3,0,3,0,0,2,2,35,,,,,,,,,,,,,,,,,,,,,,,981.5372695999977,None,981.5372695999977,None,981.0368516999879,None,j,0.652251299994532,981.5372695999977,None,,,,,,,,,,,,,q,001,2021_Jul_08_1644,toilet,2021.1.3,99.94842662058429,
0,180,-4,4,1.06,,,,,3,0,3,0,0,3,3,19,,,,,,,,,,,,,,,,,,,,,,,983.1983134000038,None,983.1983134000038,None,982.697974700015,None,j,0.7352134000102524,983.1983134000038,None,,,,,,,,,,,,,q,001,2021_Jul_08_1644,toilet,2021.1.3,99.94842662058429,
0,0,4,-4,1.15,,,,,3,0,3,0,0,4,4,13,,,,,,,,,,,,,,,,,,,,,,,984.9395207999914,None,984.9395207999914,None,984.4391590000014,None,f,0.6739920999971218,984.9395207999914,None,,,,,,,,,,,,,q,001,2021_Jul_08_1644,toilet,2021.1.3,99.94842662058429,
180,0,-4,4,0.94,,,,,3,0,3,0,0,5,5,43,,,,,,,,,,,,,,,,,,,,,,,986.6306459000043,None,986.6306459000043,None,986.1303146000137,None,f,0.8066800000087824,986.6306459000043,None,,,,,,,,,,,,,q,001,2021_Jul_08_1644,toilet,2021.1.3,99.94842662058429,
0,180,4,-4,0.85,,,,,3,0,3,0,0,6,6,21,,,,,,,,,,,,,,,,,,,,,,,988.4419625000155,None,988.4419625000155,None,987.9416146000149,None,j,0.5315125999914017,988.4419625000155,None,,,,,,,,,,,,,q,001,2021_Jul_08_1644,toilet,2021.1.3,99.94842662058429,
0,180,-4,4,0.94,,,,,3,0,3,0,0,7,7,15,,,,,,,,,,,,,,,,,,,,,,,989.9829173999897,None,989.9829173999897,None,989.4826135000039,None,f,0.6383675999823026,989.9829173999897,None,,,,,,,,,,,,,q,001,2021_Jul_08_1644,toilet,2021.1.3,99.94842662058429,
180,0,-4,4,0.97,,,,,3,0,3,0,0,8,8,44,,,,,,,,,,,,,,,,,,,,,,,991.6240294000017,None,991.6240294000017,None,991.1236953999905,None,f,1.013504100003047,991.6240294000017,None,,,,,,,,,,,,,q,001,2021_Jul_08_1644,toilet,2021.1.3,99.94842662058429,
0,180,-4,4,0.85,,,,,3,0,3,0,0,9,9,14,,,,,,,,,,,,,,,,,,,,,,,993.6454012999893,None,993.6454012999893,None,993.145064500015,None,f,0.7520206999906804,993.6454012999893,None,,,,,,,,,,,,,q,001,2021_Jul_08_1644,toilet,2021.1.3,99.94842662058429,
180,180,-4,4,1.06,,,,,3,0,3,0,0,10,10,33,,,,,,,,,,,,,,,,,,,,,,,995.416678700014,None,995.416678700014,None,994.91627039999,None,j,0.6608035000099335,995.416678700014,None,,,,,,,,,,,,,q,001,2021_Jul_08_1644,toilet,2021.1.3,99.94842662058429,
180,0,-4,4,1.0,,,,,3,0,3,0,0,11,11,45,,,,,,,,,,,,,,,,,,,,,,,997.0877425000072,None,997.0877425000072,None,996.5874713000085,None,f,0.6537231999973301,997.0877425000072,None,,,,,,,,,,,,,q,001,2021_Jul_08_1644,toilet,2021.1.3,99.94842662058429,
0,0,4,-4,0.85,,,,,3,0,3,0,0,12,12,7,,,,,,,,,,,,,,,,,,,,,,,998.748860599997,None,998.748860599997,None,998.2485206999991,None,j,0.5926114999747369,998.748860599997,None,,,,,,,,,,,,,q,001,2021_Jul_08_1644,toilet,2021.1.3,99.94842662058429,
180,180,4,-4,1.03,,,,,3,0,3,0,0,13,13,39,,,,,,,,,,,,,,,,,,,,,,,1000.3499435000122,None,1000.3499435000122,None,999.8496030000097,None,f,0.5594513999822084,1000.3499435000122,None,,,,,,,,,,,,,q,001,2021_Jul_08_1644,toilet,2021.1.3,99.94842662058429,
180,0,4,-4,0.85,,,,,3,0,3,0,0,14,14,49,,,,,,,,,,,,,,,,,,,,,,,1001.9210228000011,None,1001.9210228000011,None,1001.4206770999881,None,j,0.5243757000134792,1001.9210228000011,None,,,,,,,,,,,,,q,001,2021_Jul_08_1644,toilet,2021.1.3,99.94842662058429,
0,0,4,-4,1.03,,,,,3,0,3,0,0,15,15,11,,,,,,,,,,,,,,,,,,,,,,,1003.4521295999875,None,1003.4521295999875,None,1002.9517960000085,None,f,0.5773099999933038,1003.4521295999875,None,,,,,,,,,,,,,q,001,2021_Jul_08_1644,toilet,2021.1.3,99.94842662058429,
180,180,4,-4,0.94,,,,,3,0,3,0,0,16,16,36,,,,,,,,,,,,,,,,,,,,,,,1005.0431344000099,None,1005.0431344000099,None,1004.5427955999912,None,j,0.6181830000132322,1005.0431344000099,None,,,,,,,,,,,,,q,001,2021_Jul_08_1644,toilet,2021.1.3,99.94842662058429,
180,180,4,-4,1.06,,,,,3,0,3,0,0,17,17,40,,,,,,,,,,,,,,,,,,,,,,,1006.6642346000008,None,1006.6642346000008,None,1006.1638951000059,None,f,0.533251700020628,1006.6642346000008,None,,,,,,,,,,,,,q,001,2021_Jul_08_1644,toilet,2021.1.3,99.94842662058429,
180,0,4,-4,1.06,,,,,3,0,3,0,0,18,18,54,,,,,,,,,,,,,,,,,,,,,,,1008.2152770000102,None,1008.2152770000102,None,1007.7149468999996,None,f,0.5981267000024673,1008.2152770000102,None,,,,,,,,,,,,,q,001,2021_Jul_08_1644,toilet,2021.1.3,99.94842662058429,
0,180,4,-4,1.03,,,,,3,0,3,0,0,19,19,25,,,,,,,,,,,,,,,,,,,,,,,1009.8164613000117,None,1009.8164613000117,None,1009.3160314999986,None,f,0.6131147000123747,1009.8164613000117,None,,,,,,,,,,,,,q,001,2021_Jul_08_1644,toilet,2021.1.3,99.94842662058429,
0,0,-4,4,0.97,,,,,3,0,3,0,0,20,20,2,,,,,,,,,,,,,,,,,,,,,,,1011.4474777000141,None,1011.4474777000141,None,1010.9472203000041,None,f,0.6459391999815125,1011.4474777000141,None,,,,,,,,,,,,,q,001,2021_Jul_08_1644,toilet,2021.1.3,99.94842662058429,
0,180,4,-4,1.06,,,,,3,0,3,0,0,21,21,26,,,,,,,,,,,,,,,,,,,,,,,1013.0986014000082,None,1013.0986014000082,None,1012.5982662999886,None,f,0.6106908000074327,1013.0986014000082,None,,,,,,,,,,,,,q,001,2021_Jul_08_1644,toilet,2021.1.3,99.94842662058429,
0,0,-4,4,0.94,,,,,3,0,3,0,0,22,22,1,,,,,,,,,,,,,,,,,,,,,,,1014.7096990999999,None,1014.7096990999999,None,1014.2093506999954,None,f,0.6157794000173453,1014.7096990999999,None,,,,,,,,,,,,,q,001,2021_Jul_08_1644,toilet,2021.1.3,99.94842662058429,
180,0,4,-4,0.94,,,,,3,0,3,0,0,23,23,50,,,,,,,,,,,,,,,,,,,,,,,1016.3407953999995,None,1016.3407953999995,None,1015.8404606000113,None,j,0.5685941000119783,1016.3407953999995,None,,,,,,,,,,,,,q,001,2021_Jul_08_1644,toilet,2021.1.3,99.94842662058429,
0,0,-4,4,1.06,,,,,3,0,3,0,0,24,24,5,,,,,,,,,,,,,,,,,,,,,,,1017.9219403000025,None,1017.9219403000025,None,1017.4215238000033,None,f,0.7315405000117607,1017.9219403000025,None,,,,,,,,,,,,,q,001,2021_Jul_08_1644,toilet,2021.1.3,99.94842662058429,
180,0,-4,4,1.15,,,,,3,0,3,0,0,25,25,48,,,,,,,,,,,,,,,,,,,,,,,1019.6630459000007,None,1019.6630459000007,None,1019.1627499999886,None,j,0.6543793000164442,1019.6630459000007,None,,,,,,,,,,,,,q,001,2021_Jul_08_1644,toilet,2021.1.3,99.94842662058429,
180,180,-4,4,0.94,,,,,3,0,3,0,0,26,26,29,,,,,,,,,,,,,,,,,,,,,,,1021.3241759999946,None,1021.3241759999946,None,1020.8238394999935,None,f,0.6251898000191431,1021.3241759999946,None,,,,,,,,,,,,,q,001,2021_Jul_08_1644,toilet,2021.1.3,99.94842662058429,
180,0,4,-4,1.03,,,,,3,0,3,0,0,27,27,53,,,,,,,,,,,,,,,,,,,,,,,1022.9552820000099,None,1022.9552820000099,None,1022.4549588999944,None,f,0.722133200004464,1022.9552820000099,None,,,,,,,,,,,,,q,001,2021_Jul_08_1644,toilet,2021.1.3,99.94842662058429,
0,0,4,-4,0.94,,,,,3,0,3,0,0,28,28,8,,,,,,,,,,,,,,,,,,,,,,,1024.6965650999919,None,1024.6965650999919,None,1024.1961287000158,None,f,0.7088682999892626,1024.6965650999919,None,,,,,,,,,,,,,q,001,2021_Jul_08_1644,toilet,2021.1.3,99.94842662058429,
180,180,-4,4,0.97,,,,,3,0,3,0,0,29,29,30,,,,,,,,,,,,,,,,,,,,,,,1026.4176312999916,None,1026.4176312999916,None,1025.917374599987,None,f,0.779738199984422,1026.4176312999916,None,,,,,,,,,,,,,q,001,2021_Jul_08_1644,toilet,2021.1.3,99.94842662058429,
180,180,-4,4,0.85,,,,,3,0,3,0,0,30,30,28,,,,,,,,,,,,,,,,,,,,,,,1028.1988417000102,None,1028.1988417000102,None,1027.6985010000062,None,f,0.7586484999919776,1028.1988417000102,None,,,,,,,,,,,,,q,001,2021_Jul_08_1644,toilet,2021.1.3,99.94842662058429,
180,180,4,-4,1.0,,,,,3,0,3,0,0,31,31,38,,,,,,,,,,,,,,,,,,,,,,,1029.9700401000155,None,1029.9700401000155,None,1029.4697032000113,None,j,1.0354017000063322,1029.9700401000155,None,,,,,,,,,,,,,q,001,2021_Jul_08_1644,toilet,2021.1.3,99.94842662058429,
180,180,-4,4,1.03,,,,,3,0,3,0,0,32,32,32,,,,,,,,,,,,,,,,,,,,,,,1032.021530500002,None,1032.021530500002,None,1031.521092400013,None,j,1.1598609999928158,1032.021530500002,None,,,,,,,,,,,,,q,001,2021_Jul_08_1644,toilet,2021.1.3,99.94842662058429,
0,180,-4,4,1.15,,,,,3,0,3,0,0,33,33,20,,,,,,,,,,,,,,,,,,,,,,,1034.1929161000007,None,1034.1929161000007,None,1033.6926010999887,None,j,1.276377300004242,1034.1929161000007,None,,,,,,,,,,,,,q,001,2021_Jul_08_1644,toilet,2021.1.3,99.94842662058429,
180,0,4,-4,0.97,,,,,3,0,3,0,0,34,34,51,,,,,,,,,,,,,,,,,,,,,,,1036.4744496000058,None,1036.4744496000058,None,1035.9741085999995,None,f,1.3470542000140995,1036.4744496000058,None,,,,,,,,,,,,,q,001,2021_Jul_08_1644,toilet,2021.1.3,99.94842662058429,
180,0,-4,4,1.03,,,,,3,0,3,0,0,35,35,46,,,,,,,,,,,,,,,,,,,,,,,1038.8360617000144,None,1038.8360617000144,None,1038.3357217999874,None,j,1.0653936000016984,1038.8360617000144,None,,,,,,,,,,,,,q,001,2021_Jul_08_1644,toilet,2021.1.3,99.94842662058429,
0,180,4,-4,1.0,,,,,3,0,3,0,0,36,36,24,,,,,,,,,,,,,,,,,,,,,,,1040.9175128999923,None,1040.9175128999923,None,1040.4172179999878,None,f,0.983855800004676,1040.9175128999923,None,,,,,,,,,,,,,q,001,2021_Jul_08_1644,toilet,2021.1.3,99.94842662058429,
0,0,4,-4,0.97,,,,,3,0,3,0,0,37,37,9,,,,,,,,,,,,,,,,,,,,,,,1042.9088140999957,None,1042.9088140999957,None,1042.4085118999938,None,j,1.3286169999919366,1042.9088140999957,None,,,,,,,,,,,,,q,001,2021_Jul_08_1644,toilet,2021.1.3,99.94842662058429,
0,0,-4,4,1.03,,,,,3,0,3,0,0,38,38,4,,,,,,,,,,,,,,,,,,,,,,,1045.2503988000099,None,1045.2503988000099,None,1044.7500565999944,None,j,1.1309745000035036,1045.2503988000099,None,,,,,,,,,,,,,q,001,2021_Jul_08_1644,toilet,2021.1.3,99.94842662058429,
180,180,4,-4,1.15,,,,,3,0,3,0,0,39,39,41,,,,,,,,,,,,,,,,,,,,,,,1047.3919353999954,None,1047.3919353999954,None,1046.8915960000013,None,f,0.7333896999771241,1047.3919353999954,None,,,,,,,,,,,,,q,001,2021_Jul_08_1644,toilet,2021.1.3,99.94842662058429,
180,0,-4,4,0.85,,,,,3,0,3,0,0,40,40,42,,,,,,,,,,,,,,,,,,,,,,,1049.1430538000131,None,1049.1430538000131,None,1048.6427404000133,None,f,0.8382876999967266,1049.1430538000131,None,,,,,,,,,,,,,q,001,2021_Jul_08_1644,toilet,2021.1.3,99.94842662058429,
180,0,4,-4,1.15,,,,,3,0,3,0,0,41,41,55,,,,,,,,,,,,,,,,,,,,,,,1050.9842957000074,None,1050.9842957000074,None,1050.4839513000043,None,f,0.7890378000156488,1050.9842957000074,None,,,,,,,,,,,,,q,001,2021_Jul_08_1644,toilet,2021.1.3,99.94842662058429,
0,180,4,-4,0.94,,,,,3,0,3,0,0,42,42,22,,,,,,,,,,,,,,,,,,,,,,,1052.7755064000085,None,1052.7755064000085,None,1052.2751685999974,None,j,0.7259522000094876,1052.7755064000085,None,,,,,,,,,,,,,q,001,2021_Jul_08_1644,toilet,2021.1.3,99.94842662058429,
180,180,4,-4,0.97,,,,,3,0,3,0,0,43,43,37,,,,,,,,,,,,,,,,,,,,,,,1054.5167779999902,None,1054.5167779999902,None,1054.016377699998,None,j,0.8247004000004381,1054.5167779999902,None,,,,,,,,,,,,,q,001,2021_Jul_08_1644,toilet,2021.1.3,99.94842662058429,
180,0,-4,4,1.06,,,,,3,0,3,0,0,44,44,47,,,,,,,,,,,,,,,,,,,,,,,1056.3579342000012,None,1056.3579342000012,None,1055.8576368000067,None,j,1.0313632000179496,1056.3579342000012,None,,,,,,,,,,,,,q,001,2021_Jul_08_1644,toilet,2021.1.3,99.94842662058429,
0,180,-4,4,1.03,,,,,3,0,3,0,0,45,45,18,,,,,,,,,,,,,,,,,,,,,,,1058.3893122000154,None,1058.3893122000154,None,1057.888976199989,None,j,0.9842202999861911,1058.3893122000154,None,,,,,,,,,,,,,q,001,2021_Jul_08_1644,toilet,2021.1.3,99.94842662058429,
0,0,-4,4,1.0,,,,,3,0,3,0,0,46,46,3,,,,,,,,,,,,,,,,,,,,,,,1060.3906687000126,None,1060.3906687000126,None,1059.8903330999892,None,f,0.6949376999982633,1060.3906687000126,None,,,,,,,,,,,,,q,001,2021_Jul_08_1644,toilet,2021.1.3,99.94842662058429,
0,0,-4,4,0.85,,,,,3,0,3,0,0,47,47,0,,,,,,,,,,,,,,,,,,,,,,,1062.1019127999898,None,1062.1019127999898,None,1061.601493299997,None,f,0.6315535999892745,1062.1019127999898,None,,,,,,,,,,,,,q,001,2021_Jul_08_1644,toilet,2021.1.3,99.94842662058429,
0,180,4,-4,1.15,,,,,3,0,3,0,0,48,48,27,,,,,,,,,,,,,,,,,,,,,,,1063.7429425000155,None,1063.7429425000155,None,1063.2426411999913,None,f,0.7343919999839272,1063.7429425000155,None,,,,,,,,,,,,,q,001,2021_Jul_08_1644,toilet,2021.1.3,99.94842662058429,
0,180,-4,4,1.0,,,,,3,0,3,0,0,49,49,17,,,,,,,,,,,,,,,,,,,,,,,1065.484129999997,None,1065.484129999997,None,1064.9837874000077,None,j,0.7054007000115234,1065.484129999997,None,,,,,,,,,,,,,q,001,2021_Jul_08_1644,toilet,2021.1.3,99.94842662058429,
