ori_st,ori_pr,xpos_st,xpos_pr,size,trials_3.thisRepN,trials_3.thisTrialN,trials_3.thisN,trials_3.thisIndex,trials_2.thisRepN,trials_2.thisTrialN,trials_2.thisN,trials_2.thisIndex,trials.thisRepN,trials.thisTrialN,trials.thisN,trials.thisIndex,wel_pra.started,wel_pra.stopped,resp_wel.keys,resp_wel.rt,resp_wel.started,resp_wel.stopped,standard_pra.started,standard_pra.stopped,prove_pra.started,prove_pra.stopped,fixation.started,fixation.stopped,resp_pra.keys,resp_pra.rt,resp_pra.started,resp_pra.stopped,instr.started,instr.stopped,key_resp_2.keys,key_resp_2.rt,key_resp_2.started,key_resp_2.stopped,standard.started,standard.stopped,probe.started,probe.stopped,text.started,text.stopped,resp.keys,resp.rt,resp.started,resp.stopped,text_2.started,text_2.stopped,key_resp.keys,key_resp.rt,key_resp.started,key_resp.stopped,participant,session,date,expName,psychopyVersion,frameRate,
,,,,,,,,,,,,,,,,,44.47940930002369,None,space,177.2546743999992,44.47940930002369,None,,,,,,,,,,,,,,,,,,,,,,,,,,,,,,,,,p,001,2021_Jul_08_1534,toilet,2021.1.3,99.88872398050411,
180,0,-4,4,1.15,0,0,0,15,,,,,,,,,,,,,,,222.78016340002068,None,222.78016340002068,None,222.27987350002513,None,j,2.041626799997175,222.78016340002068,None,,,,,,,,,,,,,,,,,,,,,,,p,001,2021_Jul_08_1534,toilet,2021.1.3,99.88872398050411,
0,180,-4,4,1.15,0,1,1,6,,,,,,,,,,,,,,,225.82218330001342,None,225.82218330001342,None,225.321848600026,None,j,1.8315978000173345,225.82218330001342,None,,,,,,,,,,,,,,,,,,,,,,,p,001,2021_Jul_08_1534,toilet,2021.1.3,99.88872398050411,
0,180,4,-4,1.15,0,2,2,7,,,,,,,,,,,,,,,228.65419200001634,None,228.65419200001634,None,228.15376760001527,None,f,0.6316945000144187,228.65419200001634,None,,,,,,,,,,,,,,,,,,,,,,,p,001,2021_Jul_08_1534,toilet,2021.1.3,99.88872398050411,
0,180,4,-4,0.85,0,3,3,5,,,,,,,,,,,,,,,230.29522730002645,None,230.29522730002645,None,229.79495790001238,None,j,0.8146155999857001,230.29522730002645,None,,,,,,,,,,,,,,,,,,,,,,,p,001,2021_Jul_08_1534,toilet,2021.1.3,99.88872398050411,
180,0,-4,4,0.85,0,4,4,13,,,,,,,,,,,,,,,232.11645820000558,None,232.11645820000558,None,231.61611490001087,None,f,0.5934626999951433,232.11645820000558,None,,,,,,,,,,,,,,,,,,,,,,,p,001,2021_Jul_08_1534,toilet,2021.1.3,99.88872398050411,
180,180,-4,4,1.15,0,5,5,11,,,,,,,,,,,,,,,233.71754170002532,None,233.71754170002532,None,233.2171987000038,None,j,0.5284349999856204,233.71754170002532,None,,,,,,,,,,,,,,,,,,,,,,,p,001,2021_Jul_08_1534,toilet,2021.1.3,99.88872398050411,
180,0,-4,4,0.85,0,6,6,12,,,,,,,,,,,,,,,235.25858520000475,None,235.25858520000475,None,234.75824360002298,None,f,0.49133309998433106,235.25858520000475,None,,,,,,,,,,,,,,,,,,,,,,,p,001,2021_Jul_08_1534,toilet,2021.1.3,99.88872398050411,
0,180,-4,4,0.85,0,7,7,4,,,,,,,,,,,,,,,236.75960590000614,None,236.75960590000614,None,236.259338200005,None,f,0.6543623000034131,236.75960590000614,None,,,,,,,,,,,,,,,,,,,,,,,p,001,2021_Jul_08_1534,toilet,2021.1.3,99.88872398050411,
180,180,-4,4,0.85,0,8,8,9,,,,,,,,,,,,,,,238.43074420001358,None,238.43074420001358,None,237.93043480001506,None,f,0.48709640000015497,238.43074420001358,None,,,,,,,,,,,,,,,,,,,,,,,p,001,2021_Jul_08_1534,toilet,2021.1.3,99.88872398050411,
0,0,4,-4,0.85,0,9,9,1,,,,,,,,,,,,,,,239.9217552000191,None,239.9217552000191,None,239.42141520002042,None,j,0.4683364999946207,239.9217552000191,None,,,,,,,,,,,,,,,,,,,,,,,p,001,2021_Jul_08_1534,toilet,2021.1.3,99.88872398050411,
180,180,-4,4,0.85,0,10,10,8,,,,,,,,,,,,,,,241.40276460000314,None,241.40276460000314,None,240.9024167000025,None,f,0.42725989999598823,241.40276460000314,None,,,,,,,,,,,,,,,,,,,,,,,p,001,2021_Jul_08_1534,toilet,2021.1.3,99.88872398050411,
180,180,-4,4,1.15,0,11,11,10,,,,,,,,,,,,,,,242.84373839999898,None,242.84373839999898,None,242.34342869999819,None,j,0.4420869000023231,242.84373839999898,None,,,,,,,,,,,,,,,,,,,,,,,p,001,2021_Jul_08_1534,toilet,2021.1.3,99.88872398050411,
0,0,4,-4,1.15,0,12,12,3,,,,,,,,,,,,,,,244.2947617000027,None,244.2947617000027,None,243.794466500025,None,f,0.43117190001066774,244.2947617000027,None,,,,,,,,,,,,,,,,,,,,,,,p,001,2021_Jul_08_1534,toilet,2021.1.3,99.88872398050411,
0,0,-4,4,1.15,0,13,13,2,,,,,,,,,,,,,,,245.72570000000997,None,245.72570000000997,None,245.2253863000078,None,j,0.4561073000077158,245.72570000000997,None,,,,,,,,,,,,,,,,,,,,,,,p,001,2021_Jul_08_1534,toilet,2021.1.3,99.88872398050411,
180,0,-4,4,1.15,0,14,14,14,,,,,,,,,,,,,,,247.18668250000337,None,247.18668250000337,None,246.68634210000164,None,j,0.4991270999889821,247.18668250000337,None,,,,,,,,,,,,,,,,,,,,,,,p,001,2021_Jul_08_1534,toilet,2021.1.3,99.88872398050411,
0,0,-4,4,0.85,0,15,15,0,,,,,,,,,,,,,,,248.68770010001026,None,248.68770010001026,None,248.18735810002545,None,f,0.47025280000525527,248.68770010001026,None,,,,,,,,,,,,,,,,,,,,,,,p,001,2021_Jul_08_1534,toilet,2021.1.3,99.88872398050411,
180,180,4,-4,1.15,,,,,0,0,0,0,0,0,0,41,,,,,,,,,,,,,,,,,249.17807160000666,None,space,79.01973080000607,249.17807160000666,None,329.21233530002064,None,329.21233530002064,None,328.7119908000168,None,f,0.55350740000722,329.21233530002064,None,,,,,,,p,001,2021_Jul_08_1534,toilet,2021.1.3,99.88872398050411,
180,0,-4,4,1.03,,,,,0,0,0,0,0,1,1,46,,,,,,,,,,,,,,,,,,,,,,,330.77340110001387,None,330.77340110001387,None,330.28305170001113,None,j,0.8325426000228617,330.77340110001387,None,,,,,,,p,001,2021_Jul_08_1534,toilet,2021.1.3,99.88872398050411,
180,180,4,-4,1.03,,,,,0,0,0,0,0,2,2,39,,,,,,,,,,,,,,,,,,,,,,,332.62472070002696,None,332.62472070002696,None,332.12431060001836,None,f,0.5171279000060167,332.62472070002696,None,,,,,,,p,001,2021_Jul_08_1534,toilet,2021.1.3,99.88872398050411,
180,180,-4,4,1.03,,,,,0,0,0,0,0,3,3,32,,,,,,,,,,,,,,,,,,,,,,,334.14567520000855,None,334.14567520000855,None,333.64536630001385,None,j,1.332188500004122,334.14567520000855,None,,,,,,,p,001,2021_Jul_08_1534,toilet,2021.1.3,99.88872398050411,
180,180,-4,4,0.85,,,,,0,0,0,0,0,4,4,28,,,,,,,,,,,,,,,,,,,,,,,336.47725910000736,None,336.47725910000736,None,335.9769121000136,None,f,0.8246606000175234,336.47725910000736,None,,,,,,,p,001,2021_Jul_08_1534,toilet,2021.1.3,99.88872398050411,
0,180,4,-4,1.0,,,,,0,0,0,0,0,5,5,24,,,,,,,,,,,,,,,,,,,,,,,338.31849530001637,None,338.31849530001637,None,337.81816130000516,None,j,0.6794528000173159,338.31849530001637,None,,,,,,,p,001,2021_Jul_08_1534,toilet,2021.1.3,99.88872398050411,
180,180,-4,4,0.97,,,,,0,0,0,0,0,6,6,30,,,,,,,,,,,,,,,,,,,,,,,340.0097413000185,None,340.0097413000185,None,339.5093066000263,None,f,1.1480754000076558,340.0097413000185,None,,,,,,,p,001,2021_Jul_08_1534,toilet,2021.1.3,99.88872398050411,
0,180,-4,4,1.0,,,,,0,0,0,0,0,7,7,17,,,,,,,,,,,,,,,,,,,,,,,342.17111110000405,None,342.17111110000405,None,341.67078000001493,None,j,0.9386566999892239,342.17111110000405,None,,,,,,,p,001,2021_Jul_08_1534,toilet,2021.1.3,99.88872398050411,
0,0,4,-4,0.97,,,,,0,0,0,0,0,8,8,9,,,,,,,,,,,,,,,,,,,,,,,344.12243720001425,None,344.12243720001425,None,343.6220968000125,None,j,0.6034549000032712,344.12243720001425,None,,,,,,,p,001,2021_Jul_08_1534,toilet,2021.1.3,99.88872398050411,
0,180,4,-4,0.97,,,,,0,0,0,0,0,9,9,23,,,,,,,,,,,,,,,,,,,,,,,345.7435424000141,None,345.7435424000141,None,345.24319510001806,None,j,1.814386000012746,345.7435424000141,None,,,,,,,p,001,2021_Jul_08_1534,toilet,2021.1.3,99.88872398050411,
180,180,4,-4,1.06,,,,,0,0,0,0,0,10,10,40,,,,,,,,,,,,,,,,,,,,,,,348.5754554000159,None,348.5754554000159,None,348.07511410000734,None,f,0.7904349000018556,348.5754554000159,None,,,,,,,p,001,2021_Jul_08_1534,toilet,2021.1.3,99.88872398050411,
0,180,-4,4,1.06,,,,,0,0,0,0,0,11,11,19,,,,,,,,,,,,,,,,,,,,,,,350.3666742000205,None,350.3666742000205,None,349.8663326000096,None,j,1.12727709999308,350.3666742000205,None,,,,,,,p,001,2021_Jul_08_1534,toilet,2021.1.3,99.88872398050411,
0,180,-4,4,0.94,,,,,0,0,0,0,0,12,12,15,,,,,,,,,,,,,,,,,,,,,,,352.5181294000067,None,352.5181294000067,None,352.0177892000065,None,f,0.8796851999941282,352.5181294000067,None,,,,,,,p,001,2021_Jul_08_1534,toilet,2021.1.3,99.88872398050411,
0,0,-4,4,1.0,,,,,0,0,0,0,0,13,13,3,,,,,,,,,,,,,,,,,,,,,,,354.4094859000179,None,354.4094859000179,None,353.909077600023,None,f,1.3883239999995567,354.4094859000179,None,,,,,,,p,001,2021_Jul_08_1534,toilet,2021.1.3,99.88872398050411,
0,0,4,-4,1.15,,,,,0,0,0,0,0,14,14,13,,,,,,,,,,,,,,,,,,,,,,,356.8110472000262,None,356.8110472000262,None,356.310707800003,None,f,0.5547235999838449,356.8110472000262,None,,,,,,,p,001,2021_Jul_08_1534,toilet,2021.1.3,99.88872398050411,
0,0,-4,4,0.97,,,,,0,0,0,0,0,15,15,2,,,,,,,,,,,,,,,,,,,,,,,358.3721101000265,None,358.3721101000265,None,357.87177380002686,None,f,1.3137442999868654,358.3721101000265,None,,,,,,,p,001,2021_Jul_08_1534,toilet,2021.1.3,99.88872398050411,
0,0,-4,4,1.06,,,,,0,0,0,0,0,16,16,5,,,,,,,,,,,,,,,,,,,,,,,360.7036803000083,None,360.7036803000083,None,360.20335130000603,None,j,0.7901622999925166,360.7036803000083,None,,,,,,,p,001,2021_Jul_08_1534,toilet,2021.1.3,99.88872398050411,
0,0,-4,4,1.15,,,,,0,0,0,0,0,17,17,6,,,,,,,,,,,,,,,,,,,,,,,362.50496330001624,None,362.50496330001624,None,362.00460290000774,None,j,0.5088629000238143,362.50496330001624,None,,,,,,,p,001,2021_Jul_08_1534,toilet,2021.1.3,99.88872398050411,
0,180,4,-4,1.03,,,,,0,0,0,0,0,18,18,25,,,,,,,,,,,,,,,,,,,,,,,364.0259365000238,None,364.0259365000238,None,363.5255942000076,None,f,0.5558201000094414,364.0259365000238,None,,,,,,,p,001,2021_Jul_08_1534,toilet,2021.1.3,99.88872398050411,
180,0,-4,4,0.97,,,,,0,0,0,0,0,19,19,44,,,,,,,,,,,,,,,,,,,,,,,365.5870034000254,None,365.5870034000254,None,365.0866573000094,None,f,0.8828644999885,365.5870034000254,None,,,,,,,p,001,2021_Jul_08_1534,toilet,2021.1.3,99.88872398050411,
180,180,4,-4,1.0,,,,,0,0,0,0,0,20,20,38,,,,,,,,,,,,,,,,,,,,,,,367.48829170002136,None,367.48829170002136,None,366.98795410001185,None,f,1.109534299990628,367.48829170002136,None,,,,,,,p,001,2021_Jul_08_1534,toilet,2021.1.3,99.88872398050411,
0,0,4,-4,0.85,,,,,0,0,0,0,0,21,21,7,,,,,,,,,,,,,,,,,,,,,,,369.609812700015,None,369.609812700015,None,369.10948280000594,None,j,0.49214190000202507,369.609812700015,None,,,,,,,p,001,2021_Jul_08_1534,toilet,2021.1.3,99.88872398050411,
180,180,-4,4,0.94,,,,,0,0,0,0,0,22,22,29,,,,,,,,,,,,,,,,,,,,,,,371.1107512000017,None,371.1107512000017,None,370.6104220999987,None,f,0.49499949999153614,371.1107512000017,None,,,,,,,p,001,2021_Jul_08_1534,toilet,2021.1.3,99.88872398050411,
180,180,4,-4,0.97,,,,,0,0,0,0,0,23,23,37,,,,,,,,,,,,,,,,,,,,,,,372.61176759999944,None,372.61176759999944,None,372.11142710002605,None,j,0.5300210999848787,372.61176759999944,None,,,,,,,p,001,2021_Jul_08_1534,toilet,2021.1.3,99.88872398050411,
180,0,4,-4,1.06,,,,,0,0,0,0,0,24,24,54,,,,,,,,,,,,,,,,,,,,,,,374.1528103000019,None,374.1528103000019,None,373.6524716000131,None,f,0.6369703999953344,374.1528103000019,None,,,,,,,p,001,2021_Jul_08_1534,toilet,2021.1.3,99.88872398050411,
0,180,4,-4,1.15,,,,,0,0,0,0,0,25,25,27,,,,,,,,,,,,,,,,,,,,,,,375.7940107000177,None,375.7940107000177,None,375.2935855000105,None,f,0.5318027000175789,375.7940107000177,None,,,,,,,p,001,2021_Jul_08_1534,toilet,2021.1.3,99.88872398050411,
180,0,-4,4,1.06,,,,,0,0,0,0,0,26,26,47,,,,,,,,,,,,,,,,,,,,,,,377.3350495000195,None,377.3350495000195,None,376.8347205000173,None,j,0.7027554000087548,377.3350495000195,None,,,,,,,p,001,2021_Jul_08_1534,toilet,2021.1.3,99.88872398050411,
0,180,4,-4,1.06,,,,,0,0,0,0,0,27,27,26,,,,,,,,,,,,,,,,,,,,,,,379.04613030000473,None,379.04613030000473,None,378.54579180001747,None,f,0.49562949998653494,379.04613030000473,None,,,,,,,p,001,2021_Jul_08_1534,toilet,2021.1.3,99.88872398050411,
180,0,4,-4,1.0,,,,,0,0,0,0,0,28,28,52,,,,,,,,,,,,,,,,,,,,,,,380.54714810001315,None,380.54714810001315,None,380.04680740000913,None,f,1.1227227000053972,380.54714810001315,None,,,,,,,p,001,2021_Jul_08_1534,toilet,2021.1.3,99.88872398050411,
180,180,4,-4,0.94,,,,,0,0,0,0,0,29,29,36,,,,,,,,,,,,,,,,,,,,,,,382.6886016000062,None,382.6886016000062,None,382.18826960001024,None,j,0.6292292999860365,382.6886016000062,None,,,,,,,p,001,2021_Jul_08_1534,toilet,2021.1.3,99.88872398050411,
180,0,-4,4,1.15,,,,,0,0,0,0,0,30,30,48,,,,,,,,,,,,,,,,,,,,,,,384.319722300017,None,384.319722300017,None,383.8194610000064,None,j,0.5500688999891281,384.319722300017,None,,,,,,,p,001,2021_Jul_08_1534,toilet,2021.1.3,99.88872398050411,
180,0,4,-4,1.15,,,,,0,0,0,0,0,31,31,55,,,,,,,,,,,,,,,,,,,,,,,385.8807686000073,None,385.8807686000073,None,385.380464100017,None,f,0.47697899999911897,385.8807686000073,None,,,,,,,p,001,2021_Jul_08_1534,toilet,2021.1.3,99.88872398050411,
180,180,-4,4,1.15,,,,,0,0,0,0,0,32,32,34,,,,,,,,,,,,,,,,,,,,,,,387.36177150000003,None,387.36177150000003,None,386.8614283000061,None,j,0.500001299980795,387.36177150000003,None,,,,,,,p,001,2021_Jul_08_1534,toilet,2021.1.3,99.88872398050411,
180,0,-4,4,0.85,,,,,0,0,0,0,0,33,33,42,,,,,,,,,,,,,,,,,,,,,,,388.86279340001056,None,388.86279340001056,None,388.36245159999817,None,f,0.4710100000083912,388.86279340001056,None,,,,,,,p,001,2021_Jul_08_1534,toilet,2021.1.3,99.88872398050411,
180,180,-4,4,1.06,,,,,0,0,0,0,0,34,34,33,,,,,,,,,,,,,,,,,,,,,,,390.3437984000193,None,390.3437984000193,None,389.84345700000995,None,j,0.526093899999978,390.3437984000193,None,,,,,,,p,001,2021_Jul_08_1534,toilet,2021.1.3,99.88872398050411,
0,180,4,-4,0.85,,,,,0,0,0,0,0,35,35,21,,,,,,,,,,,,,,,,,,,,,,,391.88494190000347,None,391.88494190000347,None,391.384577800025,None,j,0.4888892000017222,391.88494190000347,None,,,,,,,p,001,2021_Jul_08_1534,toilet,2021.1.3,99.88872398050411,
0,0,-4,4,1.03,,,,,0,0,0,0,0,36,36,4,,,,,,,,,,,,,,,,,,,,,,,393.38586249999935,None,393.38586249999935,None,392.8855103000242,None,j,1.7078437999880407,393.38586249999935,None,,,,,,,p,001,2021_Jul_08_1534,toilet,2021.1.3,99.88872398050411,
180,0,-4,4,1.0,,,,,0,0,0,0,0,37,37,45,,,,,,,,,,,,,,,,,,,,,,,396.10773410002,None,396.10773410002,None,395.6073643999989,None,j,1.5300684999965597,396.10773410002,None,,,,,,,p,001,2021_Jul_08_1534,toilet,2021.1.3,99.88872398050411,
0,0,4,-4,0.94,,,,,0,0,0,0,0,38,38,8,,,,,,,,,,,,,,,,,,,,,,,398.64950520001,None,398.64950520001,None,398.14908450000803,None,j,1.7244014000170864,398.64950520001,None,,,,,,,p,001,2021_Jul_08_1534,toilet,2021.1.3,99.88872398050411,
180,0,4,-4,0.94,,,,,0,0,0,0,0,39,39,50,,,,,,,,,,,,,,,,,,,,,,,401.3812788000214,None,401.3812788000214,None,400.88094020000426,None,j,0.5924652999965474,401.3812788000214,None,,,,,,,p,001,2021_Jul_08_1534,toilet,2021.1.3,99.88872398050411,
0,0,4,-4,1.06,,,,,0,0,0,0,0,40,40,12,,,,,,,,,,,,,,,,,,,,,,,402.98236970001017,None,402.98236970001017,None,402.48202870000387,None,f,1.199467900005402,402.98236970001017,None,,,,,,,p,001,2021_Jul_08_1534,toilet,2021.1.3,99.88872398050411,
0,0,-4,4,0.94,,,,,0,0,0,0,0,41,41,1,,,,,,,,,,,,,,,,,,,,,,,405.19389870000305,None,405.19389870000305,None,404.69353129999945,None,f,1.004022300010547,405.19389870000305,None,,,,,,,p,001,2021_Jul_08_1534,toilet,2021.1.3,99.88872398050411,
180,0,4,-4,0.97,,,,,0,0,0,0,0,42,42,51,,,,,,,,,,,,,,,,,,,,,,,407.215331000014,None,407.215331000014,None,406.7149059000076,None,j,0.5664287999970838,407.215331000014,None,,,,,,,p,001,2021_Jul_08_1534,toilet,2021.1.3,99.88872398050411,
180,180,-4,4,1.0,,,,,0,0,0,0,0,43,43,31,,,,,,,,,,,,,,,,,,,,,,,408.78630560002057,None,408.78630560002057,None,408.2859710000048,None,f,1.0596227000060026,408.78630560002057,None,,,,,,,p,001,2021_Jul_08_1534,toilet,2021.1.3,99.88872398050411,
0,0,4,-4,1.0,,,,,0,0,0,0,0,44,44,10,,,,,,,,,,,,,,,,,,,,,,,410.8577062000113,None,410.8577062000113,None,410.3573660000111,None,j,1.6122171000170056,410.8577062000113,None,,,,,,,p,001,2021_Jul_08_1534,toilet,2021.1.3,99.88872398050411,
180,180,4,-4,0.85,,,,,0,0,0,0,0,45,45,35,,,,,,,,,,,,,,,,,,,,,,,413.47958330000984,None,413.47958330000984,None,412.9791488000192,None,j,0.574276600003941,413.47958330000984,None,,,,,,,p,001,2021_Jul_08_1534,toilet,2021.1.3,99.88872398050411,
180,0,4,-4,0.85,,,,,0,0,0,0,0,46,46,49,,,,,,,,,,,,,,,,,,,,,,,415.06053850002354,None,415.06053850002354,None,414.5603143000044,None,j,0.41721549999783747,415.06053850002354,None,,,,,,,p,001,2021_Jul_08_1534,toilet,2021.1.3,99.88872398050411,
0,180,-4,4,0.85,,,,,0,0,0,0,0,47,47,14,,,,,,,,,,,,,,,,,,,,,,,416.48152160001337,None,416.48152160001337,None,415.98118500001146,None,f,0.48432630000752397,416.48152160001337,None,,,,,,,p,001,2021_Jul_08_1534,toilet,2021.1.3,99.88872398050411,
0,180,-4,4,0.97,,,,,0,0,0,0,0,48,48,16,,,,,,,,,,,,,,,,,,,,,,,417.9825386000157,None,417.9825386000157,None,417.4822053000098,None,f,0.615368300001137,417.9825386000157,None,,,,,,,p,001,2021_Jul_08_1534,toilet,2021.1.3,99.88872398050411,
0,0,-4,4,0.85,,,,,0,0,0,0,0,49,49,0,,,,,,,,,,,,,,,,,,,,,,,419.61364670001785,None,419.61364670001785,None,419.11330860000453,None,f,0.48808770001051016,419.61364670001785,None,,,,,,,p,001,2021_Jul_08_1534,toilet,2021.1.3,99.88872398050411,
0,180,-4,4,1.15,,,,,0,0,0,0,0,50,50,20,,,,,,,,,,,,,,,,,,,,,,,421.1047324000101,None,421.1047324000101,None,420.6044015000225,None,j,0.4689986999728717,421.1047324000101,None,,,,,,,p,001,2021_Jul_08_1534,toilet,2021.1.3,99.88872398050411,
180,0,4,-4,1.03,,,,,0,0,0,0,0,51,51,53,,,,,,,,,,,,,,,,,,,,,,,422.57566230001976,None,422.57566230001976,None,422.07534900002065,None,f,0.4380816000048071,422.57566230001976,None,,,,,,,p,001,2021_Jul_08_1534,toilet,2021.1.3,99.88872398050411,
0,180,-4,4,1.03,,,,,0,0,0,0,0,52,52,18,,,,,,,,,,,,,,,,,,,,,,,424.0166363000171,None,424.0166363000171,None,423.5162928000209,None,f,1.2851262000040151,424.0166363000171,None,,,,,,,p,001,2021_Jul_08_1534,toilet,2021.1.3,99.88872398050411,
0,180,4,-4,0.94,,,,,0,0,0,0,0,53,53,22,,,,,,,,,,,,,,,,,,,,,,,426.3081862000108,None,426.3081862000108,None,425.8078470000182,None,j,0.6096351000014693,426.3081862000108,None,,,,,,,p,001,2021_Jul_08_1534,toilet,2021.1.3,99.88872398050411,
180,0,-4,4,0.94,,,,,0,0,0,0,0,54,54,43,,,,,,,,,,,,,,,,,,,,,,,427.92928820001543,None,427.92928820001543,None,427.4290467000101,None,f,0.7004240000096615,427.92928820001543,None,,,,,,,p,001,2021_Jul_08_1534,toilet,2021.1.3,99.88872398050411,
0,0,4,-4,1.03,,,,,0,0,0,0,0,55,55,11,,,,,,,,,,,,,,,,,,,,,,,429.63044680000166,None,429.63044680000166,None,429.13018730000476,None,f,1.0952701999922283,429.63044680000166,None,,,,,,,p,001,2021_Jul_08_1534,toilet,2021.1.3,99.88872398050411,
0,180,-4,4,1.15,,,,,0,0,0,0,1,0,56,20,,,,,,,,,,,,,,,,,,,,,,,431.7318667000218,None,431.7318667000218,None,431.23154410001007,None,j,0.5138931999972556,431.7318667000218,None,,,,,,,p,001,2021_Jul_08_1534,toilet,2021.1.3,99.88872398050411,
0,0,-4,4,0.85,,,,,0,0,0,0,1,1,57,0,,,,,,,,,,,,,,,,,,,,,,,433.25289660002454,None,433.25289660002454,None,432.752564000024,None,f,0.46500309999100864,433.25289660002454,None,,,,,,,p,001,2021_Jul_08_1534,toilet,2021.1.3,99.88872398050411,
180,180,4,-4,1.0,,,,,0,0,0,0,1,2,58,38,,,,,,,,,,,,,,,,,,,,,,,434.7340301000222,None,434.7340301000222,None,434.2335624000116,None,f,1.1117734000144992,434.7340301000222,None,,,,,,,p,001,2021_Jul_08_1534,toilet,2021.1.3,99.88872398050411,
0,0,4,-4,1.0,,,,,0,0,0,0,1,3,59,10,,,,,,,,,,,,,,,,,,,,,,,436.845375600009,None,436.845375600009,None,436.34499310000683,None,j,2.056358400004683,436.845375600009,None,,,,,,,p,001,2021_Jul_08_1534,toilet,2021.1.3,99.88872398050411,
0,180,-4,4,1.03,,,,,0,0,0,0,1,4,60,18,,,,,,,,,,,,,,,,,,,,,,,439.9174180000264,None,439.9174180000264,None,439.41707730002236,None,j,1.1764575999986846,439.9174180000264,None,,,,,,,p,001,2021_Jul_08_1534,toilet,2021.1.3,99.88872398050411,
180,180,4,-4,1.06,,,,,0,0,0,0,1,5,61,40,,,,,,,,,,,,,,,,,,,,,,,442.1089095000061,None,442.1089095000061,None,441.6085717000242,None,f,0.5371924999926705,442.1089095000061,None,,,,,,,p,001,2021_Jul_08_1534,toilet,2021.1.3,99.88872398050411,
0,0,-4,4,0.97,,,,,0,0,0,0,1,6,62,2,,,,,,,,,,,,,,,,,,,,,,,443.6600351000088,None,443.6600351000088,None,443.15961900001275,None,f,1.0176846999966074,443.6600351000088,None,,,,,,,p,001,2021_Jul_08_1534,toilet,2021.1.3,99.88872398050411,
180,180,-4,4,1.03,,,,,0,0,0,0,1,7,63,32,,,,,,,,,,,,,,,,,,,,,,,445.68133210000815,None,445.68133210000815,None,445.1809920000087,None,f,1.6844398999819532,445.68133210000815,None,,,,,,,p,001,2021_Jul_08_1534,toilet,2021.1.3,99.88872398050411,
0,0,4,-4,0.85,,,,,0,0,0,0,1,8,64,7,,,,,,,,,,,,,,,,,,,,,,,448.38316190001206,None,448.38316190001206,None,447.88282300002174,None,j,0.4706595000170637,448.38316190001206,None,,,,,,,p,001,2021_Jul_08_1534,toilet,2021.1.3,99.88872398050411,
0,0,-4,4,0.94,,,,,0,0,0,0,1,9,65,1,,,,,,,,,,,,,,,,,,,,,,,449.8542186000268,None,449.8542186000268,None,449.3638362000056,None,f,0.5516109000018332,449.8542186000268,None,,,,,,,p,001,2021_Jul_08_1534,toilet,2021.1.3,99.88872398050411,
0,0,-4,4,1.0,,,,,0,0,0,0,1,10,66,3,,,,,,,,,,,,,,,,,,,,,,,451.4152126000263,None,451.4152126000263,None,450.9149541000079,None,j,0.6226461000042036,451.4152126000263,None,,,,,,,p,001,2021_Jul_08_1534,toilet,2021.1.3,99.88872398050411,
180,0,-4,4,1.0,,,,,0,0,0,0,1,11,67,45,,,,,,,,,,,,,,,,,,,,,,,453.0463265000144,None,453.0463265000144,None,452.54600240002037,None,f,0.5114942000072915,453.0463265000144,None,,,,,,,p,001,2021_Jul_08_1534,toilet,2021.1.3,99.88872398050411,
0,180,4,-4,1.03,,,,,0,0,0,0,1,12,68,25,,,,,,,,,,,,,,,,,,,,,,,454.55735050002113,None,454.55735050002113,None,454.05701100002625,None,f,0.5366576999949757,454.55735050002113,None,,,,,,,p,001,2021_Jul_08_1534,toilet,2021.1.3,99.88872398050411,
0,0,-4,4,1.15,,,,,0,0,0,0,1,13,69,6,,,,,,,,,,,,,,,,,,,,,,,456.11840930001927,None,456.11840930001927,None,455.6180736000242,None,j,0.4634651000087615,456.11840930001927,None,,,,,,,p,001,2021_Jul_08_1534,toilet,2021.1.3,99.88872398050411,
180,0,-4,4,1.15,,,,,0,0,0,0,1,14,70,48,,,,,,,,,,,,,,,,,,,,,,,457.60950479999883,None,457.60950479999883,None,457.1090827000153,None,j,0.5242620999924839,457.60950479999883,None,,,,,,,p,001,2021_Jul_08_1534,toilet,2021.1.3,99.88872398050411,
0,180,4,-4,0.94,,,,,0,0,0,0,1,15,71,22,,,,,,,,,,,,,,,,,,,,,,,459.1405042000115,None,459.1405042000115,None,458.6402059000102,None,j,0.4492212000186555,459.1405042000115,None,,,,,,,p,001,2021_Jul_08_1534,toilet,2021.1.3,99.88872398050411,
180,180,-4,4,1.15,,,,,0,0,0,0,1,16,72,34,,,,,,,,,,,,,,,,,,,,,,,460.59144380001817,None,460.59144380001817,None,460.0911043000233,None,j,0.4702363999967929,460.59144380001817,None,,,,,,,p,001,2021_Jul_08_1534,toilet,2021.1.3,99.88872398050411,
180,0,4,-4,0.94,,,,,0,0,0,0,1,17,73,50,,,,,,,,,,,,,,,,,,,,,,,462.06244370000786,None,462.06244370000786,None,461.5621022999985,None,j,0.9034057999961078,462.06244370000786,None,,,,,,,p,001,2021_Jul_08_1534,toilet,2021.1.3,99.88872398050411,
180,0,4,-4,1.03,,,,,0,0,0,0,1,18,74,53,,,,,,,,,,,,,,,,,,,,,,,463.9737326000177,None,463.9737326000177,None,463.47339369999827,None,j,0.7520873000030406,463.9737326000177,None,,,,,,,p,001,2021_Jul_08_1534,toilet,2021.1.3,99.88872398050411,
0,180,-4,4,1.0,,,,,0,0,0,0,1,19,75,17,,,,,,,,,,,,,,,,,,,,,,,465.7350043000188,None,465.7350043000188,None,465.23467970002093,None,j,0.7027892000041902,465.7350043000188,None,,,,,,,p,001,2021_Jul_08_1534,toilet,2021.1.3,99.88872398050411,
180,180,-4,4,0.94,,,,,0,0,0,0,1,20,76,29,,,,,,,,,,,,,,,,,,,,,,,467.45609200000763,None,467.45609200000763,None,466.9557624000008,None,f,0.5337482999893837,467.45609200000763,None,,,,,,,p,001,2021_Jul_08_1534,toilet,2021.1.3,99.88872398050411,
180,0,4,-4,1.15,,,,,0,0,0,0,1,21,77,55,,,,,,,,,,,,,,,,,,,,,,,468.99714479999966,None,468.99714479999966,None,468.49679430000833,None,f,0.4806924999866169,468.99714479999966,None,,,,,,,p,001,2021_Jul_08_1534,toilet,2021.1.3,99.88872398050411,
0,0,4,-4,1.03,,,,,0,0,0,0,1,22,78,11,,,,,,,,,,,,,,,,,,,,,,,470.4881570000143,None,470.4881570000143,None,469.9878036000009,None,f,0.5255825000058394,470.4881570000143,None,,,,,,,p,001,2021_Jul_08_1534,toilet,2021.1.3,99.88872398050411,
180,180,-4,4,1.06,,,,,0,0,0,0,1,23,79,33,,,,,,,,,,,,,,,,,,,,,,,472.0292793000117,None,472.0292793000117,None,471.52887239999836,None,j,0.5684788999787997,472.0292793000117,None,,,,,,,p,001,2021_Jul_08_1534,toilet,2021.1.3,99.88872398050411,
180,180,4,-4,0.85,,,,,0,0,0,0,1,24,80,35,,,,,,,,,,,,,,,,,,,,,,,473.61029130002134,None,473.61029130002134,None,473.1100267000147,None,j,0.5234170000185259,473.61029130002134,None,,,,,,,p,001,2021_Jul_08_1534,toilet,2021.1.3,99.88872398050411,
180,180,4,-4,0.94,,,,,0,0,0,0,1,25,81,36,,,,,,,,,,,,,,,,,,,,,,,475.14131430001,None,475.14131430001,None,474.64097259999835,None,j,0.7206027000211179,475.14131430001,None,,,,,,,p,001,2021_Jul_08_1534,toilet,2021.1.3,99.88872398050411,
0,180,4,-4,1.0,,,,,0,0,0,0,1,26,82,24,,,,,,,,,,,,,,,,,,,,,,,476.87250320002204,None,476.87250320002204,None,476.3721452000027,None,f,0.5892889999959152,476.87250320002204,None,,,,,,,p,001,2021_Jul_08_1534,toilet,2021.1.3,99.88872398050411,
180,180,4,-4,1.03,,,,,0,0,0,0,1,27,83,39,,,,,,,,,,,,,,,,,,,,,,,478.4735760000185,None,478.4735760000185,None,477.97323360000155,None,f,0.588129999989178,478.4735760000185,None,,,,,,,p,001,2021_Jul_08_1534,toilet,2021.1.3,99.88872398050411,
0,0,4,-4,1.15,,,,,0,0,0,0,1,28,84,13,,,,,,,,,,,,,,,,,,,,,,,480.0647268000175,None,480.0647268000175,None,479.56439510002383,None,f,0.5010397000005469,480.0647268000175,None,,,,,,,p,001,2021_Jul_08_1534,toilet,2021.1.3,99.88872398050411,
0,180,-4,4,0.94,,,,,0,0,0,0,1,29,85,15,,,,,,,,,,,,,,,,,,,,,,,481.56567260000156,None,481.56567260000156,None,481.06536220002454,None,f,0.504093900002772,481.56567260000156,None,,,,,,,p,001,2021_Jul_08_1534,toilet,2021.1.3,99.88872398050411,
0,180,-4,4,1.06,,,,,0,0,0,0,1,30,86,19,,,,,,,,,,,,,,,,,,,,,,,483.0766943000199,None,483.0766943000199,None,482.5763623000239,None,j,1.0091932000068482,483.0766943000199,None,,,,,,,p,001,2021_Jul_08_1534,toilet,2021.1.3,99.88872398050411,
0,0,-4,4,1.06,,,,,0,0,0,0,1,31,87,5,,,,,,,,,,,,,,,,,,,,,,,485.09806410002057,None,485.09806410002057,None,484.5977263000095,None,j,1.5957969000155572,485.09806410002057,None,,,,,,,p,001,2021_Jul_08_1534,toilet,2021.1.3,99.88872398050411,
0,0,-4,4,1.03,,,,,0,0,0,0,1,32,88,4,,,,,,,,,,,,,,,,,,,,,,,487.70990010001697,None,487.70990010001697,None,487.20953140000347,None,j,1.415810500009684,487.70990010001697,None,,,,,,,p,001,2021_Jul_08_1534,toilet,2021.1.3,99.88872398050411,
0,180,4,-4,0.85,,,,,0,0,0,0,1,33,89,21,,,,,,,,,,,,,,,,,,,,,,,490.13147550000576,None,490.13147550000576,None,489.6311403000145,None,j,0.5782191999896895,490.13147550000576,None,,,,,,,p,001,2021_Jul_08_1534,toilet,2021.1.3,99.88872398050411,
180,0,4,-4,0.85,,,,,0,0,0,0,1,34,90,49,,,,,,,,,,,,,,,,,,,,,,,491.71255240001483,None,491.71255240001483,None,491.2122096000239,None,j,0.5812577000178862,491.71255240001483,None,,,,,,,p,001,2021_Jul_08_1534,toilet,2021.1.3,99.88872398050411,
0,0,4,-4,1.06,,,,,0,0,0,0,1,35,91,12,,,,,,,,,,,,,,,,,,,,,,,493.30362370001967,None,493.30362370001967,None,492.803283700021,None,f,0.5421952999895439,493.30362370001967,None,,,,,,,p,001,2021_Jul_08_1534,toilet,2021.1.3,99.88872398050411,
180,180,-4,4,0.85,,,,,0,0,0,0,1,36,92,28,,,,,,,,,,,,,,,,,,,,,,,494.85475690002204,None,494.85475690002204,None,494.3543407000252,None,f,0.5271788999962155,494.85475690002204,None,,,,,,,p,001,2021_Jul_08_1534,toilet,2021.1.3,99.88872398050411,
180,0,-4,4,0.85,,,,,0,0,0,0,1,37,93,42,,,,,,,,,,,,,,,,,,,,,,,496.3957263000193,None,496.3957263000193,None,495.89539190000505,None,f,0.4579819999926258,496.3957263000193,None,,,,,,,p,001,2021_Jul_08_1534,toilet,2021.1.3,99.88872398050411,
180,180,4,-4,1.15,,,,,0,0,0,0,1,38,94,41,,,,,,,,,,,,,,,,,,,,,,,497.8567171000177,None,497.8567171000177,None,497.35640700001386,None,f,0.4530263000051491,497.8567171000177,None,,,,,,,p,001,2021_Jul_08_1534,toilet,2021.1.3,99.88872398050411,
180,0,-4,4,0.94,,,,,0,0,0,0,1,39,95,43,,,,,,,,,,,,,,,,,,,,,,,499.31770600000164,None,499.31770600000164,None,498.8173730999988,None,f,0.9283419999992475,499.31770600000164,None,,,,,,,p,001,2021_Jul_08_1534,toilet,2021.1.3,99.88872398050411,
180,0,4,-4,1.0,,,,,0,0,0,0,1,40,96,52,,,,,,,,,,,,,,,,,,,,,,,501.2590246000036,None,501.2590246000036,None,500.75868530001026,None,f,1.3387623000016902,501.2590246000036,None,,,,,,,p,001,2021_Jul_08_1534,toilet,2021.1.3,99.88872398050411,
0,0,4,-4,0.97,,,,,0,0,0,0,1,41,97,9,,,,,,,,,,,,,,,,,,,,,,,503.61061310002697,None,503.61061310002697,None,503.1102753000159,None,j,0.6672224999929313,503.61061310002697,None,,,,,,,p,001,2021_Jul_08_1534,toilet,2021.1.3,99.88872398050411,
180,0,4,-4,0.97,,,,,0,0,0,0,1,42,98,51,,,,,,,,,,,,,,,,,,,,,,,505.2817529000167,None,505.2817529000167,None,504.78140900001745,None,f,0.9320066999935079,505.2817529000167,None,,,,,,,p,001,2021_Jul_08_1534,toilet,2021.1.3,99.88872398050411,
0,180,4,-4,0.97,,,,,0,0,0,0,1,43,99,23,,,,,,,,,,,,,,,,,,,,,,,507.2230726000271,None,507.2230726000271,None,506.7227249999996,None,j,1.022765999980038,507.2230726000271,None,,,,,,,p,001,2021_Jul_08_1534,toilet,2021.1.3,99.88872398050411,
0,180,-4,4,0.97,,,,,0,0,0,0,1,44,100,16,,,,,,,,,,,,,,,,,,,,,,,509.26452870000503,None,509.26452870000503,None,508.76420420000795,None,f,0.5974367999879178,509.26452870000503,None,,,,,,,p,001,2021_Jul_08_1534,toilet,2021.1.3,99.88872398050411,
180,0,-4,4,1.06,,,,,0,0,0,0,1,45,101,47,,,,,,,,,,,,,,,,,,,,,,,510.8755480000109,None,510.8755480000109,None,510.37524829999893,None,j,0.6022332000138704,510.8755480000109,None,,,,,,,p,001,2021_Jul_08_1534,toilet,2021.1.3,99.88872398050411,
0,0,4,-4,0.94,,,,,0,0,0,0,1,46,102,8,,,,,,,,,,,,,,,,,,,,,,,512.486639300012,None,512.486639300012,None,511.9863038000185,None,j,0.6710847000067588,512.486639300012,None,,,,,,,p,001,2021_Jul_08_1534,toilet,2021.1.3,99.88872398050411,
0,180,4,-4,1.06,,,,,0,0,0,0,1,47,103,26,,,,,,,,,,,,,,,,,,,,,,,514.1577739000204,None,514.1577739000204,None,513.6574431000045,None,f,0.5681369999947492,514.1577739000204,None,,,,,,,p,001,2021_Jul_08_1534,toilet,2021.1.3,99.88872398050411,
180,180,-4,4,0.97,,,,,0,0,0,0,1,48,104,30,,,,,,,,,,,,,,,,,,,,,,,515.7388486000127,None,515.7388486000127,None,515.2385117000085,None,f,0.5709405000088736,515.7388486000127,None,,,,,,,p,001,2021_Jul_08_1534,toilet,2021.1.3,99.88872398050411,
180,180,-4,4,1.0,,,,,0,0,0,0,1,49,105,31,,,,,,,,,,,,,,,,,,,,,,,517.3200005000108,None,517.3200005000108,None,516.8196689000179,None,f,0.6218288999807555,517.3200005000108,None,,,,,,,p,001,2021_Jul_08_1534,toilet,2021.1.3,99.88872398050411,
180,0,4,-4,1.06,,,,,0,0,0,0,1,50,106,54,,,,,,,,,,,,,,,,,,,,,,,518.9610304000089,None,518.9610304000089,None,518.4606896000041,None,f,0.8046580000082031,518.9610304000089,None,,,,,,,p,001,2021_Jul_08_1534,toilet,2021.1.3,99.88872398050411,
0,180,-4,4,0.85,,,,,0,0,0,0,1,51,107,14,,,,,,,,,,,,,,,,,,,,,,,520.7722619000124,None,520.7722619000124,None,520.27195330002,None,f,0.5135470000095665,520.7722619000124,None,,,,,,,p,001,2021_Jul_08_1534,toilet,2021.1.3,99.88872398050411,
0,180,4,-4,1.15,,,,,0,0,0,0,1,52,108,27,,,,,,,,,,,,,,,,,,,,,,,522.3033023000171,None,522.3033023000171,None,521.8029566000041,None,f,0.5025150000001304,522.3033023000171,None,,,,,,,p,001,2021_Jul_08_1534,toilet,2021.1.3,99.88872398050411,
180,0,-4,4,1.03,,,,,0,0,0,0,1,53,109,46,,,,,,,,,,,,,,,,,,,,,,,523.8243666000199,None,523.8243666000199,None,523.3239875000145,None,j,1.0455371999996714,523.8243666000199,None,,,,,,,p,001,2021_Jul_08_1534,toilet,2021.1.3,99.88872398050411,
180,0,-4,4,0.97,,,,,0,0,0,0,1,54,110,44,,,,,,,,,,,,,,,,,,,,,,,525.88572630001,None,525.88572630001,None,525.3853925000003,None,j,1.2879608000221197,525.88572630001,None,,,,,,,p,001,2021_Jul_08_1534,toilet,2021.1.3,99.88872398050411,
180,180,4,-4,0.97,,,,,0,0,0,0,1,55,111,37,,,,,,,,,,,,,,,,,,,,,,,528.1772824000218,None,528.1772824000218,None,527.6769452000153,None,f,1.428587600006722,528.1772824000218,None,,,,,,,p,001,2021_Jul_08_1534,toilet,2021.1.3,99.88872398050411,
,,,,,,,,,0,0,0,0,,,,,,,,,,,,,,,,,,,,,,,,,,,,,,,,,,,,,529.6283185000066,None,space,4.073356699984288,529.6283185000066,None,p,001,2021_Jul_08_1534,toilet,2021.1.3,99.88872398050411,
0,0,4,-4,0.94,,,,,1,0,1,0,0,0,0,8,,,,,,,,,,,,,,,,,533.7111795000092,None,space,1.1424536999838892,533.7111795000092,None,535.8725053000089,None,535.8725053000089,None,535.3721635000256,None,j,1.8612444000027608,535.8725053000089,None,,,,,,,p,001,2021_Jul_08_1534,toilet,2021.1.3,99.88872398050411,
180,0,-4,4,0.94,,,,,1,0,1,0,0,1,1,43,,,,,,,,,,,,,,,,,,,,,,,538.7445421000011,None,538.7445421000011,None,538.2441933000227,None,f,0.7492229999916162,538.7445421000011,None,,,,,,,p,001,2021_Jul_08_1534,toilet,2021.1.3,99.88872398050411,
0,180,-4,4,0.97,,,,,1,0,1,0,0,2,2,16,,,,,,,,,,,,,,,,,,,,,,,540.5056154000049,None,540.5056154000049,None,540.0053409000102,None,j,1.02007849997608,540.5056154000049,None,,,,,,,p,001,2021_Jul_08_1534,toilet,2021.1.3,99.88872398050411,
0,180,4,-4,0.97,,,,,1,0,1,0,0,3,3,23,,,,,,,,,,,,,,,,,,,,,,,542.5270151000004,None,542.5270151000004,None,542.0266730000149,None,j,0.9987498999980744,542.5270151000004,None,,,,,,,p,001,2021_Jul_08_1534,toilet,2021.1.3,99.88872398050411,
180,180,4,-4,0.94,,,,,1,0,1,0,0,4,4,36,,,,,,,,,,,,,,,,,,,,,,,544.5283741000167,None,544.5283741000167,None,544.0280315999989,None,j,0.5654586000018753,544.5283741000167,None,,,,,,,p,001,2021_Jul_08_1534,toilet,2021.1.3,99.88872398050411,
180,180,-4,4,1.06,,,,,1,0,1,0,0,5,5,33,,,,,,,,,,,,,,,,,,,,,,,546.1094415000116,None,546.1094415000116,None,545.6091848000069,None,j,0.9683115000079852,546.1094415000116,None,,,,,,,p,001,2021_Jul_08_1534,toilet,2021.1.3,99.88872398050411,
180,180,-4,4,1.03,,,,,1,0,1,0,0,6,6,32,,,,,,,,,,,,,,,,,,,,,,,548.0907881000021,None,548.0907881000021,None,547.5904478000011,None,j,0.7148720999830402,548.0907881000021,None,,,,,,,p,001,2021_Jul_08_1534,toilet,2021.1.3,99.88872398050411,
180,180,4,-4,0.97,,,,,1,0,1,0,0,7,7,37,,,,,,,,,,,,,,,,,,,,,,,549.8119520000182,None,549.8119520000182,None,549.3116224000114,None,j,0.6259851999930106,549.8119520000182,None,,,,,,,p,001,2021_Jul_08_1534,toilet,2021.1.3,99.88872398050411,
0,0,-4,4,0.94,,,,,1,0,1,0,0,8,8,1,,,,,,,,,,,,,,,,,,,,,,,551.4530721000046,None,551.4530721000046,None,550.9527318000037,None,f,0.5048280999762937,551.4530721000046,None,,,,,,,p,001,2021_Jul_08_1534,toilet,2021.1.3,99.88872398050411,
180,180,-4,4,0.85,,,,,1,0,1,0,0,9,9,28,,,,,,,,,,,,,,,,,,,,,,,552.9740969999984,None,552.9740969999984,None,552.4737642000255,None,f,0.5357500000100117,552.9740969999984,None,,,,,,,p,001,2021_Jul_08_1534,toilet,2021.1.3,99.88872398050411,
0,180,4,-4,1.03,,,,,1,0,1,0,0,10,10,25,,,,,,,,,,,,,,,,,,,,,,,554.5252325000183,None,554.5252325000183,None,554.0248105000064,None,f,0.48843620001571253,554.5252325000183,None,,,,,,,p,001,2021_Jul_08_1534,toilet,2021.1.3,99.88872398050411,
0,0,-4,4,1.03,,,,,1,0,1,0,0,11,11,4,,,,,,,,,,,,,,,,,,,,,,,556.0161643000029,None,556.0161643000029,None,555.5158247000072,None,j,0.5816142999974545,556.0161643000029,None,,,,,,,p,001,2021_Jul_08_1534,toilet,2021.1.3,99.88872398050411,
180,0,-4,4,0.97,,,,,1,0,1,0,0,12,12,44,,,,,,,,,,,,,,,,,,,,,,,557.5972418000165,None,557.5972418000165,None,557.0968989000248,None,f,0.4884345000027679,557.5972418000165,None,,,,,,,p,001,2021_Jul_08_1534,toilet,2021.1.3,99.88872398050411,
0,180,-4,4,1.15,,,,,1,0,1,0,0,13,13,20,,,,,,,,,,,,,,,,,,,,,,,559.0882475000108,None,559.0882475000108,None,558.587905500026,None,j,0.48554670001612976,559.0882475000108,None,,,,,,,p,001,2021_Jul_08_1534,toilet,2021.1.3,99.88872398050411,
0,0,4,-4,1.0,,,,,1,0,1,0,0,14,14,10,,,,,,,,,,,,,,,,,,,,,,,560.5893362000061,None,560.5893362000061,None,560.0889221000252,None,f,0.5845569999946747,560.5893362000061,None,,,,,,,p,001,2021_Jul_08_1534,toilet,2021.1.3,99.88872398050411,
180,0,-4,4,1.0,,,,,1,0,1,0,0,15,15,45,,,,,,,,,,,,,,,,,,,,,,,562.1903836000129,None,562.1903836000129,None,561.6900976000179,None,f,0.47137579999980517,562.1903836000129,None,,,,,,,p,001,2021_Jul_08_1534,toilet,2021.1.3,99.88872398050411,
0,0,-4,4,0.97,,,,,1,0,1,0,0,16,16,2,,,,,,,,,,,,,,,,,,,,,,,563.6613371999993,None,563.6613371999993,None,563.1610027000133,None,j,0.5204631999949925,563.6613371999993,None,,,,,,,p,001,2021_Jul_08_1534,toilet,2021.1.3,99.88872398050411,
0,180,-4,4,1.0,,,,,1,0,1,0,0,17,17,17,,,,,,,,,,,,,,,,,,,,,,,565.1823713000049,None,565.1823713000049,None,564.6820402000158,None,j,0.7594978999986779,565.1823713000049,None,,,,,,,p,001,2021_Jul_08_1534,toilet,2021.1.3,99.88872398050411,
180,180,-4,4,1.15,,,,,1,0,1,0,0,18,18,34,,,,,,,,,,,,,,,,,,,,,,,566.9535755000252,None,566.9535755000252,None,566.4532373000111,None,j,0.5243552000029013,566.9535755000252,None,,,,,,,p,001,2021_Jul_08_1534,toilet,2021.1.3,99.88872398050411,
0,0,-4,4,0.85,,,,,1,0,1,0,0,19,19,0,,,,,,,,,,,,,,,,,,,,,,,568.4846999000001,None,568.4846999000001,None,567.9843603000045,None,f,0.43302560001029633,568.4846999000001,None,,,,,,,p,001,2021_Jul_08_1534,toilet,2021.1.3,99.88872398050411,
0,0,4,-4,0.85,,,,,1,0,1,0,0,20,20,7,,,,,,,,,,,,,,,,,,,,,,,569.925589600025,None,569.925589600025,None,569.4253323000157,None,j,1.3121534000092652,569.925589600025,None,,,,,,,p,001,2021_Jul_08_1534,toilet,2021.1.3,99.88872398050411,
0,180,-4,4,1.03,,,,,1,0,1,0,0,21,21,18,,,,,,,,,,,,,,,,,,,,,,,572.2471702000184,None,572.2471702000184,None,571.7468281000038,None,f,0.7505722999922,572.2471702000184,None,,,,,,,p,001,2021_Jul_08_1534,toilet,2021.1.3,99.88872398050411,
0,0,-4,4,1.0,,,,,1,0,1,0,0,22,22,3,,,,,,,,,,,,,,,,,,,,,,,574.0083682000113,None,574.0083682000113,None,573.5080300000263,None,f,0.5093786000215914,574.0083682000113,None,,,,,,,p,001,2021_Jul_08_1534,toilet,2021.1.3,99.88872398050411,
180,0,-4,4,1.15,,,,,1,0,1,0,0,23,23,48,,,,,,,,,,,,,,,,,,,,,,,575.5294693000033,None,575.5294693000033,None,575.0290767000115,None,j,0.46026560000609607,575.5294693000033,None,,,,,,,p,001,2021_Jul_08_1534,toilet,2021.1.3,99.88872398050411,
180,180,-4,4,0.97,,,,,1,0,1,0,0,24,24,30,,,,,,,,,,,,,,,,,,,,,,,577.0003953000123,None,577.0003953000123,None,576.5001342000032,None,f,0.5254062000021804,577.0003953000123,None,,,,,,,p,001,2021_Jul_08_1534,toilet,2021.1.3,99.88872398050411,
180,0,4,-4,0.85,,,,,1,0,1,0,0,25,25,49,,,,,,,,,,,,,,,,,,,,,,,578.5314569000038,None,578.5314569000038,None,578.0310922000208,None,j,1.0422072999936063,578.5314569000038,None,,,,,,,p,001,2021_Jul_08_1534,toilet,2021.1.3,99.88872398050411,
0,180,-4,4,0.94,,,,,1,0,1,0,0,26,26,15,,,,,,,,,,,,,,,,,,,,,,,580.5828241000127,None,580.5828241000127,None,580.0824919000152,None,f,1.1349048000120092,580.5828241000127,None,,,,,,,p,001,2021_Jul_08_1534,toilet,2021.1.3,99.88872398050411,
0,0,4,-4,1.15,,,,,1,0,1,0,0,27,27,13,,,,,,,,,,,,,,,,,,,,,,,582.7243526000238,None,582.7243526000238,None,582.2239401000261,None,f,0.46526470000389963,582.7243526000238,None,,,,,,,p,001,2021_Jul_08_1534,toilet,2021.1.3,99.88872398050411,
180,0,4,-4,0.97,,,,,1,0,1,0,0,28,28,51,,,,,,,,,,,,,,,,,,,,,,,584.1953076000209,None,584.1953076000209,None,583.6950114000065,None,j,0.56239859998459,584.1953076000209,None,,,,,,,p,001,2021_Jul_08_1534,toilet,2021.1.3,99.88872398050411,
180,0,-4,4,1.03,,,,,1,0,1,0,0,29,29,46,,,,,,,,,,,,,,,,,,,,,,,585.7663423000195,None,585.7663423000195,None,585.2660005000071,None,j,1.5193420000141487,585.7663423000195,None,,,,,,,p,001,2021_Jul_08_1534,toilet,2021.1.3,99.88872398050411,
0,0,-4,4,1.15,,,,,1,0,1,0,0,30,30,6,,,,,,,,,,,,,,,,,,,,,,,588.2880482000182,None,588.2880482000182,None,587.7877096000011,None,j,0.4696049999911338,588.2880482000182,None,,,,,,,p,001,2021_Jul_08_1534,toilet,2021.1.3,99.88872398050411,
0,0,4,-4,1.03,,,,,1,0,1,0,0,31,31,11,,,,,,,,,,,,,,,,,,,,,,,589.7591255000152,None,589.7591255000152,None,589.2587050000147,None,f,0.4545925999991596,589.7591255000152,None,,,,,,,p,001,2021_Jul_08_1534,toilet,2021.1.3,99.88872398050411,
0,180,4,-4,0.94,,,,,1,0,1,0,0,32,32,22,,,,,,,,,,,,,,,,,,,,,,,591.2201152000052,None,591.2201152000052,None,590.719753900019,None,j,0.5616231999883894,591.2201152000052,None,,,,,,,p,001,2021_Jul_08_1534,toilet,2021.1.3,99.88872398050411,
0,180,4,-4,0.85,,,,,1,0,1,0,0,33,33,21,,,,,,,,,,,,,,,,,,,,,,,592.7911025000212,None,592.7911025000212,None,592.2907626000233,None,j,0.49462250000215136,592.7911025000212,None,,,,,,,p,001,2021_Jul_08_1534,toilet,2021.1.3,99.88872398050411,
180,180,4,-4,0.85,,,,,1,0,1,0,0,34,34,35,,,,,,,,,,,,,,,,,,,,,,,594.2921066000126,None,594.2921066000126,None,593.791779000021,None,j,0.8017651000118349,594.2921066000126,None,,,,,,,p,001,2021_Jul_08_1534,toilet,2021.1.3,99.88872398050411,
180,0,4,-4,1.0,,,,,1,0,1,0,0,35,35,52,,,,,,,,,,,,,,,,,,,,,,,596.0933433000173,None,596.0933433000173,None,595.5930044999986,None,f,0.5363949000020511,596.0933433000173,None,,,,,,,p,001,2021_Jul_08_1534,toilet,2021.1.3,99.88872398050411,
180,0,4,-4,1.06,,,,,1,0,1,0,0,36,36,54,,,,,,,,,,,,,,,,,,,,,,,597.6344644000055,None,597.6344644000055,None,597.134128500009,None,f,0.5472600999928545,597.6344644000055,None,,,,,,,p,001,2021_Jul_08_1534,toilet,2021.1.3,99.88872398050411,
0,0,4,-4,0.97,,,,,1,0,1,0,0,37,37,9,,,,,,,,,,,,,,,,,,,,,,,599.195446000027,None,599.195446000027,None,598.695183200005,None,j,0.5382046999875456,599.195446000027,None,,,,,,,p,001,2021_Jul_08_1534,toilet,2021.1.3,99.88872398050411,
0,180,4,-4,1.06,,,,,1,0,1,0,0,38,38,26,,,,,,,,,,,,,,,,,,,,,,,600.7364936000085,None,600.7364936000085,None,600.2361514000222,None,f,0.6294226000027265,600.7364936000085,None,,,,,,,p,001,2021_Jul_08_1534,toilet,2021.1.3,99.88872398050411,
0,0,-4,4,1.06,,,,,1,0,1,0,0,39,39,5,,,,,,,,,,,,,,,,,,,,,,,602.377605000016,None,602.377605000016,None,601.8772653000196,None,j,0.6521135999937542,602.377605000016,None,,,,,,,p,001,2021_Jul_08_1534,toilet,2021.1.3,99.88872398050411,
180,180,4,-4,1.0,,,,,1,0,1,0,0,40,40,38,,,,,,,,,,,,,,,,,,,,,,,604.0487371000054,None,604.0487371000054,None,603.5483975000097,None,f,0.7410571999789681,604.0487371000054,None,,,,,,,p,001,2021_Jul_08_1534,toilet,2021.1.3,99.88872398050411,
180,0,-4,4,1.06,,,,,1,0,1,0,0,41,41,47,,,,,,,,,,,,,,,,,,,,,,,605.8000165000267,None,605.8000165000267,None,605.2996611999988,None,j,0.7496383000107016,605.8000165000267,None,,,,,,,p,001,2021_Jul_08_1534,toilet,2021.1.3,99.88872398050411,
180,180,-4,4,1.0,,,,,1,0,1,0,0,42,42,31,,,,,,,,,,,,,,,,,,,,,,,607.5511423000135,None,607.5511423000135,None,607.0507755000144,None,f,1.350531600008253,607.5511423000135,None,,,,,,,p,001,2021_Jul_08_1534,toilet,2021.1.3,99.88872398050411,
180,180,4,-4,1.03,,,,,1,0,1,0,0,43,43,39,,,,,,,,,,,,,,,,,,,,,,,609.912716300023,None,609.912716300023,None,609.4123743000091,None,f,0.8452335000038147,609.912716300023,None,,,,,,,p,001,2021_Jul_08_1534,toilet,2021.1.3,99.88872398050411,
180,0,4,-4,0.94,,,,,1,0,1,0,0,44,44,50,,,,,,,,,,,,,,,,,,,,,,,611.7739824000164,None,611.7739824000164,None,611.2736393000232,None,j,0.5838541999983136,611.7739824000164,None,,,,,,,p,001,2021_Jul_08_1534,toilet,2021.1.3,99.88872398050411,
180,0,4,-4,1.15,,,,,1,0,1,0,0,45,45,55,,,,,,,,,,,,,,,,,,,,,,,613.3751394000137,None,613.3751394000137,None,612.8747250000015,None,f,0.5984943000075873,613.3751394000137,None,,,,,,,p,001,2021_Jul_08_1534,toilet,2021.1.3,99.88872398050411,
0,180,-4,4,0.85,,,,,1,0,1,0,0,46,46,14,,,,,,,,,,,,,,,,,,,,,,,614.9761491000245,None,614.9761491000245,None,614.4758102000051,None,f,0.6136080999858677,614.9761491000245,None,,,,,,,p,001,2021_Jul_08_1534,toilet,2021.1.3,99.88872398050411,
180,180,4,-4,1.15,,,,,1,0,1,0,0,47,47,41,,,,,,,,,,,,,,,,,,,,,,,616.5972476000024,None,616.5972476000024,None,616.0969074000022,None,f,0.4806447000009939,616.5972476000024,None,,,,,,,p,001,2021_Jul_08_1534,toilet,2021.1.3,99.88872398050411,
0,180,4,-4,1.15,,,,,1,0,1,0,0,48,48,27,,,,,,,,,,,,,,,,,,,,,,,618.0782533000165,None,618.0782533000165,None,617.577914500027,None,f,0.47146870000869967,618.0782533000165,None,,,,,,,p,001,2021_Jul_08_1534,toilet,2021.1.3,99.88872398050411,
180,0,4,-4,1.03,,,,,1,0,1,0,0,49,49,53,,,,,,,,,,,,,,,,,,,,,,,619.5593664000044,None,619.5593664000044,None,619.0589274000085,None,f,0.8463027999969199,619.5593664000044,None,,,,,,,p,001,2021_Jul_08_1534,toilet,2021.1.3,99.88872398050411,
180,180,4,-4,1.06,,,,,1,0,1,0,0,50,50,40,,,,,,,,,,,,,,,,,,,,,,,621.4205226000049,None,621.4205226000049,None,620.9202205000038,None,f,0.569143599976087,621.4205226000049,None,,,,,,,p,001,2021_Jul_08_1534,toilet,2021.1.3,99.88872398050411,
0,180,-4,4,1.06,,,,,1,0,1,0,0,51,51,19,,,,,,,,,,,,,,,,,,,,,,,622.9915813000116,None,622.9915813000116,None,622.4912534000177,None,j,0.6942571000254247,622.9915813000116,None,,,,,,,p,001,2021_Jul_08_1534,toilet,2021.1.3,99.88872398050411,
0,0,4,-4,1.06,,,,,1,0,1,0,0,52,52,12,,,,,,,,,,,,,,,,,,,,,,,624.7027432000032,None,624.7027432000032,None,624.2024096000241,None,f,0.5189766999974381,624.7027432000032,None,,,,,,,p,001,2021_Jul_08_1534,toilet,2021.1.3,99.88872398050411,
0,180,4,-4,1.0,,,,,1,0,1,0,0,53,53,24,,,,,,,,,,,,,,,,,,,,,,,626.2337830000033,None,626.2337830000033,None,625.73344120002,None,f,0.7640013999771327,626.2337830000033,None,,,,,,,p,001,2021_Jul_08_1534,toilet,2021.1.3,99.88872398050411,
180,180,-4,4,0.94,,,,,1,0,1,0,0,54,54,29,,,,,,,,,,,,,,,,,,,,,,,628.0150763000129,None,628.0150763000129,None,627.514688300027,None,f,0.5505122000176925,628.0150763000129,None,,,,,,,p,001,2021_Jul_08_1534,toilet,2021.1.3,99.88872398050411,
180,0,-4,4,0.85,,,,,1,0,1,0,0,55,55,42,,,,,,,,,,,,,,,,,,,,,,,629.5660523000115,None,629.5660523000115,None,629.0657063000253,None,f,0.5195946000167169,629.5660523000115,None,,,,,,,p,001,2021_Jul_08_1534,toilet,2021.1.3,99.88872398050411,
0,0,-4,4,0.97,,,,,1,0,1,0,1,0,56,2,,,,,,,,,,,,,,,,,,,,,,,631.0870735000062,None,631.0870735000062,None,630.5867334000068,None,f,1.110694400005741,631.0870735000062,None,,,,,,,p,001,2021_Jul_08_1534,toilet,2021.1.3,99.88872398050411,
0,180,4,-4,1.15,,,,,1,0,1,0,1,1,57,27,,,,,,,,,,,,,,,,,,,,,,,633.2085150000057,None,633.2085150000057,None,632.7081735000247,None,f,0.5251829999906477,633.2085150000057,None,,,,,,,p,001,2021_Jul_08_1534,toilet,2021.1.3,99.88872398050411,
0,0,4,-4,0.97,,,,,1,0,1,0,1,2,58,9,,,,,,,,,,,,,,,,,,,,,,,634.7396313000063,None,634.7396313000063,None,634.2392942000006,None,j,0.5141564999939874,634.7396313000063,None,,,,,,,p,001,2021_Jul_08_1534,toilet,2021.1.3,99.88872398050411,
0,180,-4,4,1.06,,,,,1,0,1,0,1,3,59,19,,,,,,,,,,,,,,,,,,,,,,,636.2705909000069,None,636.2705909000069,None,635.770275500021,None,j,0.6790442999918014,636.2705909000069,None,,,,,,,p,001,2021_Jul_08_1534,toilet,2021.1.3,99.88872398050411,
180,180,4,-4,0.94,,,,,1,0,1,0,1,4,60,36,,,,,,,,,,,,,,,,,,,,,,,637.9517411999987,None,637.9517411999987,None,637.451392100018,None,j,0.9339434999856167,637.9517411999987,None,,,,,,,p,001,2021_Jul_08_1534,toilet,2021.1.3,99.88872398050411,
180,0,4,-4,1.15,,,,,1,0,1,0,1,5,61,55,,,,,,,,,,,,,,,,,,,,,,,639.8930492000072,None,639.8930492000072,None,639.3927126000053,None,f,0.48068809998221695,639.8930492000072,None,,,,,,,p,001,2021_Jul_08_1534,toilet,2021.1.3,99.88872398050411,
0,0,-4,4,1.15,,,,,1,0,1,0,1,6,62,6,,,,,,,,,,,,,,,,,,,,,,,641.3741209,None,641.3741209,None,640.8737254000152,None,j,0.5036227999953553,641.3741209,None,,,,,,,p,001,2021_Jul_08_1534,toilet,2021.1.3,99.88872398050411,
0,180,-4,4,0.85,,,,,1,0,1,0,1,7,63,14,,,,,,,,,,,,,,,,,,,,,,,642.8851469000219,None,642.8851469000219,None,642.3848300000245,None,f,0.4644480000133626,642.8851469000219,None,,,,,,,p,001,2021_Jul_08_1534,toilet,2021.1.3,99.88872398050411,
180,180,-4,4,1.03,,,,,1,0,1,0,1,8,64,32,,,,,,,,,,,,,,,,,,,,,,,644.3560710000165,None,644.3560710000165,None,643.855756200006,None,f,0.8175713999953587,644.3560710000165,None,,,,,,,p,001,2021_Jul_08_1534,toilet,2021.1.3,99.88872398050411,
0,180,4,-4,0.85,,,,,1,0,1,0,1,9,65,21,,,,,,,,,,,,,,,,,,,,,,,646.1773091000214,None,646.1773091000214,None,645.6769695000257,None,j,0.4844253000046592,646.1773091000214,None,,,,,,,p,001,2021_Jul_08_1534,toilet,2021.1.3,99.88872398050411,
180,180,4,-4,0.97,,,,,1,0,1,0,1,10,66,37,,,,,,,,,,,,,,,,,,,,,,,647.6683175000071,None,647.6683175000071,None,647.1679803000006,None,f,1.3455048000032548,647.6683175000071,None,,,,,,,p,001,2021_Jul_08_1534,toilet,2021.1.3,99.88872398050411,
0,0,4,-4,1.15,,,,,1,0,1,0,1,11,67,13,,,,,,,,,,,,,,,,,,,,,,,650.0299297000165,None,650.0299297000165,None,649.5296718000027,None,f,0.5197839000029489,650.0299297000165,None,,,,,,,p,001,2021_Jul_08_1534,toilet,2021.1.3,99.88872398050411,
180,0,4,-4,0.94,,,,,1,0,1,0,1,12,68,50,,,,,,,,,,,,,,,,,,,,,,,651.5609676000022,None,651.5609676000022,None,651.0606139000156,None,j,1.2126763999985997,651.5609676000022,None,,,,,,,p,001,2021_Jul_08_1534,toilet,2021.1.3,99.88872398050411,
180,0,4,-4,0.97,,,,,1,0,1,0,1,13,69,51,,,,,,,,,,,,,,,,,,,,,,,653.7824766000267,None,653.7824766000267,None,653.2821257000032,None,f,1.8391859999974258,653.7824766000267,None,,,,,,,p,001,2021_Jul_08_1534,toilet,2021.1.3,99.88872398050411,
180,0,-4,4,0.85,,,,,1,0,1,0,1,14,70,42,,,,,,,,,,,,,,,,,,,,,,,656.6244773000071,None,656.6244773000071,None,656.1240563000028,None,f,0.48514289999729954,656.6244773000071,None,,,,,,,p,001,2021_Jul_08_1534,toilet,2021.1.3,99.88872398050411,
180,0,4,-4,1.06,,,,,1,0,1,0,1,15,71,54,,,,,,,,,,,,,,,,,,,,,,,658.1154137000267,None,658.1154137000267,None,657.6151365000114,None,f,0.7862335999961942,658.1154137000267,None,,,,,,,p,001,2021_Jul_08_1534,toilet,2021.1.3,99.88872398050411,
180,0,-4,4,1.03,,,,,1,0,1,0,1,16,72,46,,,,,,,,,,,,,,,,,,,,,,,659.9066199000226,None,659.9066199000226,None,659.406278200011,None,j,0.5950142999936361,659.9066199000226,None,,,,,,,p,001,2021_Jul_08_1534,toilet,2021.1.3,99.88872398050411,
0,180,4,-4,1.03,,,,,1,0,1,0,1,17,73,25,,,,,,,,,,,,,,,,,,,,,,,661.5077052999986,None,661.5077052999986,None,661.0073673000152,None,f,0.7382032999885269,661.5077052999986,None,,,,,,,p,001,2021_Jul_08_1534,toilet,2021.1.3,99.88872398050411,
180,0,-4,4,0.97,,,,,1,0,1,0,1,18,74,44,,,,,,,,,,,,,,,,,,,,,,,663.2588937000255,None,663.2588937000255,None,662.758554,None,f,0.5869147999910638,663.2588937000255,None,,,,,,,p,001,2021_Jul_08_1534,toilet,2021.1.3,99.88872398050411,
0,180,4,-4,1.06,,,,,1,0,1,0,1,19,75,26,,,,,,,,,,,,,,,,,,,,,,,664.8600627000269,None,664.8600627000269,None,664.3596513000084,None,f,0.4736253000155557,664.8600627000269,None,,,,,,,p,001,2021_Jul_08_1534,toilet,2021.1.3,99.88872398050411,
180,180,4,-4,1.03,,,,,1,0,1,0,1,20,76,39,,,,,,,,,,,,,,,,,,,,,,,666.340977600019,None,666.340977600019,None,665.8406474000076,None,f,0.8326480000105221,666.340977600019,None,,,,,,,p,001,2021_Jul_08_1534,toilet,2021.1.3,99.88872398050411,
0,180,4,-4,0.94,,,,,1,0,1,0,1,21,77,22,,,,,,,,,,,,,,,,,,,,,,,668.1822253999999,None,668.1822253999999,None,667.6818917000201,None,j,0.7994754999817815,668.1822253999999,None,,,,,,,p,001,2021_Jul_08_1534,toilet,2021.1.3,99.88872398050411,
180,0,4,-4,1.0,,,,,1,0,1,0,1,22,78,52,,,,,,,,,,,,,,,,,,,,,,,669.9934575000079,None,669.9934575000079,None,669.4931219000136,None,f,0.7483588999893982,669.9934575000079,None,,,,,,,p,001,2021_Jul_08_1534,toilet,2021.1.3,99.88872398050411,
0,0,-4,4,1.03,,,,,1,0,1,0,1,23,79,4,,,,,,,,,,,,,,,,,,,,,,,671.7547452000144,None,671.7547452000144,None,671.2543080000032,None,f,1.1949465000070632,671.7547452000144,None,,,,,,,p,001,2021_Jul_08_1534,toilet,2021.1.3,99.88872398050411,
0,180,-4,4,0.94,,,,,1,0,1,0,1,24,80,15,,,,,,,,,,,,,,,,,,,,,,,673.9561403000262,None,673.9561403000262,None,673.455801300006,None,f,0.5935185999842361,673.9561403000262,None,,,,,,,p,001,2021_Jul_08_1534,toilet,2021.1.3,99.88872398050411,
0,180,4,-4,0.97,,,,,1,0,1,0,1,25,81,23,,,,,,,,,,,,,,,,,,,,,,,675.5572332000011,None,675.5572332000011,None,675.0568995000212,None,j,0.864643699984299,675.5572332000011,None,,,,,,,p,001,2021_Jul_08_1534,toilet,2021.1.3,99.88872398050411,
0,0,-4,4,0.94,,,,,1,0,1,0,1,26,82,1,,,,,,,,,,,,,,,,,,,,,,,677.4385064000089,None,677.4385064000089,None,676.9381690000009,None,f,0.503333799977554,677.4385064000089,None,,,,,,,p,001,2021_Jul_08_1534,toilet,2021.1.3,99.88872398050411,
0,0,4,-4,1.0,,,,,1,0,1,0,1,27,83,10,,,,,,,,,,,,,,,,,,,,,,,678.9596224999987,None,678.9596224999987,None,678.4591983999999,None,f,0.678075700008776,678.9596224999987,None,,,,,,,p,001,2021_Jul_08_1534,toilet,2021.1.3,99.88872398050411,
0,0,4,-4,1.03,,,,,1,0,1,0,1,28,84,11,,,,,,,,,,,,,,,,,,,,,,,680.6506828000129,None,680.6506828000129,None,680.1503477000224,None,f,0.5230813999951351,680.6506828000129,None,,,,,,,p,001,2021_Jul_08_1534,toilet,2021.1.3,99.88872398050411,
0,180,-4,4,1.15,,,,,1,0,1,0,1,29,85,20,,,,,,,,,,,,,,,,,,,,,,,682.1817194000178,None,682.1817194000178,None,681.6813795000198,None,j,0.527994200005196,682.1817194000178,None,,,,,,,p,001,2021_Jul_08_1534,toilet,2021.1.3,99.88872398050411,
0,180,-4,4,1.03,,,,,1,0,1,0,1,30,86,18,,,,,,,,,,,,,,,,,,,,,,,683.7127602000255,None,683.7127602000255,None,683.2124208000023,None,j,1.2529382999928202,683.7127602000255,None,,,,,,,p,001,2021_Jul_08_1534,toilet,2021.1.3,99.88872398050411,
180,180,-4,4,0.94,,,,,1,0,1,0,1,31,87,29,,,,,,,,,,,,,,,,,,,,,,,685.9842977000226,None,685.9842977000226,None,685.4840372000181,None,f,0.6614599000022281,685.9842977000226,None,,,,,,,p,001,2021_Jul_08_1534,toilet,2021.1.3,99.88872398050411,
0,180,4,-4,1.0,,,,,1,0,1,0,1,32,88,24,,,,,,,,,,,,,,,,,,,,,,,687.6554412000114,None,687.6554412000114,None,687.1551024000219,None,j,1.1181749000097625,687.6554412000114,None,,,,,,,p,001,2021_Jul_08_1534,toilet,2021.1.3,99.88872398050411,
0,0,-4,4,0.85,,,,,1,0,1,0,1,33,89,0,,,,,,,,,,,,,,,,,,,,,,,689.7768793000141,None,689.7768793000141,None,689.2765407000261,None,f,0.5328131999995094,689.7768793000141,None,,,,,,,p,001,2021_Jul_08_1534,toilet,2021.1.3,99.88872398050411,
180,180,-4,4,0.85,,,,,1,0,1,0,1,34,90,28,,,,,,,,,,,,,,,,,,,,,,,691.317924700008,None,691.317924700008,None,690.8175791000249,None,f,0.5917990000161808,691.317924700008,None,,,,,,,p,001,2021_Jul_08_1534,toilet,2021.1.3,99.88872398050411,
180,180,4,-4,1.0,,,,,1,0,1,0,1,35,91,38,,,,,,,,,,,,,,,,,,,,,,,692.9190076000232,None,692.9190076000232,None,692.4187517000246,None,f,0.9268506999942474,692.9190076000232,None,,,,,,,p,001,2021_Jul_08_1534,toilet,2021.1.3,99.88872398050411,
0,180,-4,4,0.97,,,,,1,0,1,0,1,36,92,16,,,,,,,,,,,,,,,,,,,,,,,694.8603392000077,None,694.8603392000077,None,694.3600722000119,None,f,0.969349199993303,694.8603392000077,None,,,,,,,p,001,2021_Jul_08_1534,toilet,2021.1.3,99.88872398050411,
180,0,4,-4,1.03,,,,,1,0,1,0,1,37,93,53,,,,,,,,,,,,,,,,,,,,,,,696.8316585000139,None,696.8316585000139,None,696.3313237000257,None,f,0.5820681000186596,696.8316585000139,None,,,,,,,p,001,2021_Jul_08_1534,toilet,2021.1.3,99.88872398050411,
180,0,-4,4,0.94,,,,,1,0,1,0,1,38,94,43,,,,,,,,,,,,,,,,,,,,,,,698.4227383000252,None,698.4227383000252,None,697.9224054000224,None,f,1.3430594000092242,698.4227383000252,None,,,,,,,p,001,2021_Jul_08_1534,toilet,2021.1.3,99.88872398050411,
180,0,-4,4,1.15,,,,,1,0,1,0,1,39,95,48,,,,,,,,,,,,,,,,,,,,,,,700.7744123000011,None,700.7744123000011,None,700.2840006000188,None,j,0.4952429000113625,700.7744123000011,None,,,,,,,p,001,2021_Jul_08_1534,toilet,2021.1.3,99.88872398050411,
0,180,-4,4,1.0,,,,,1,0,1,0,1,40,96,17,,,,,,,,,,,,,,,,,,,,,,,702.2753749000258,None,702.2753749000258,None,701.7751016000111,None,f,0.5623441999778152,702.2753749000258,None,,,,,,,p,001,2021_Jul_08_1534,toilet,2021.1.3,99.88872398050411,
180,180,-4,4,0.97,,,,,1,0,1,0,1,41,97,30,,,,,,,,,,,,,,,,,,,,,,,703.8464163000172,None,703.8464163000172,None,703.3460764000192,None,f,0.6233374000003096,703.8464163000172,None,,,,,,,p,001,2021_Jul_08_1534,toilet,2021.1.3,99.88872398050411,
180,180,-4,4,1.15,,,,,1,0,1,0,1,42,98,34,,,,,,,,,,,,,,,,,,,,,,,705.477526600007,None,705.477526600007,None,704.9771831000107,None,j,0.5921910000033677,705.477526600007,None,,,,,,,p,001,2021_Jul_08_1534,toilet,2021.1.3,99.88872398050411,
180,180,4,-4,0.85,,,,,1,0,1,0,1,43,99,35,,,,,,,,,,,,,,,,,,,,,,,707.0786153000081,None,707.0786153000081,None,706.5782794000115,None,j,0.5590317999885883,707.0786153000081,None,,,,,,,p,001,2021_Jul_08_1534,toilet,2021.1.3,99.88872398050411,
180,180,-4,4,1.0,,,,,1,0,1,0,1,44,100,31,,,,,,,,,,,,,,,,,,,,,,,708.6397490000236,None,708.6397490000236,None,708.1394261000096,None,f,1.0939486999996006,708.6397490000236,None,,,,,,,p,001,2021_Jul_08_1534,toilet,2021.1.3,99.88872398050411,
180,0,-4,4,1.0,,,,,1,0,1,0,1,45,101,45,,,,,,,,,,,,,,,,,,,,,,,710.741093300021,None,710.741093300021,None,710.2407611000235,None,j,0.8165150000131689,710.741093300021,None,,,,,,,p,001,2021_Jul_08_1534,toilet,2021.1.3,99.88872398050411,
0,0,-4,4,1.06,,,,,1,0,1,0,1,46,102,5,,,,,,,,,,,,,,,,,,,,,,,712.5623288000061,None,712.5623288000061,None,712.0619875999982,None,j,0.49935399999958463,712.5623288000061,None,,,,,,,p,001,2021_Jul_08_1534,toilet,2021.1.3,99.88872398050411,
180,0,-4,4,1.06,,,,,1,0,1,0,1,47,103,47,,,,,,,,,,,,,,,,,,,,,,,714.0733530000143,None,714.0733530000143,None,713.573014100024,None,j,0.49241400000755675,714.0733530000143,None,,,,,,,p,001,2021_Jul_08_1534,toilet,2021.1.3,99.88872398050411,
0,0,-4,4,1.0,,,,,1,0,1,0,1,48,104,3,,,,,,,,,,,,,,,,,,,,,,,715.5844391999999,None,715.5844391999999,None,715.0840424000053,None,j,1.0292475000023842,715.5844391999999,None,,,,,,,p,001,2021_Jul_08_1534,toilet,2021.1.3,99.88872398050411,
180,180,4,-4,1.15,,,,,1,0,1,0,1,49,105,41,,,,,,,,,,,,,,,,,,,,,,,717.6257623000129,None,717.6257623000129,None,717.1254208000028,None,f,0.5398663000087254,717.6257623000129,None,,,,,,,p,001,2021_Jul_08_1534,toilet,2021.1.3,99.88872398050411,
180,180,4,-4,1.06,,,,,1,0,1,0,1,50,106,40,,,,,,,,,,,,,,,,,,,,,,,719.1668085000128,None,719.1668085000128,None,718.6664650000166,None,f,0.7748399999982212,719.1668085000128,None,,,,,,,p,001,2021_Jul_08_1534,toilet,2021.1.3,99.88872398050411,
0,0,4,-4,1.06,,,,,1,0,1,0,1,51,107,12,,,,,,,,,,,,,,,,,,,,,,,720.9480131000164,None,720.9480131000164,None,720.447676300013,None,f,0.7538905999972485,720.9480131000164,None,,,,,,,p,001,2021_Jul_08_1534,toilet,2021.1.3,99.88872398050411,
180,180,-4,4,1.06,,,,,1,0,1,0,1,52,108,33,,,,,,,,,,,,,,,,,,,,,,,722.7192981000117,None,722.7192981000117,None,722.218874800019,None,j,0.7903834999888204,722.7192981000117,None,,,,,,,p,001,2021_Jul_08_1534,toilet,2021.1.3,99.88872398050411,
180,0,4,-4,0.85,,,,,1,0,1,0,1,53,109,49,,,,,,,,,,,,,,,,,,,,,,,724.5204355000169,None,724.5204355000169,None,724.020093900006,None,j,0.5412932000181172,724.5204355000169,None,,,,,,,p,001,2021_Jul_08_1534,toilet,2021.1.3,99.88872398050411,
0,0,4,-4,0.85,,,,,1,0,1,0,1,54,110,7,,,,,,,,,,,,,,,,,,,,,,,726.0614940000232,None,726.0614940000232,None,725.5611403000075,None,j,0.5841523999988567,726.0614940000232,None,,,,,,,p,001,2021_Jul_08_1534,toilet,2021.1.3,99.88872398050411,
0,0,4,-4,0.94,,,,,1,0,1,0,1,55,111,8,,,,,,,,,,,,,,,,,,,,,,,727.6525631000113,None,727.6525631000113,None,727.1522235000157,None,j,0.8331150000158232,727.6525631000113,None,,,,,,,p,001,2021_Jul_08_1534,toilet,2021.1.3,99.88872398050411,
,,,,,,,,,1,0,1,0,,,,,,,,,,,,,,,,,,,,,,,,,,,,,,,,,,,,,728.5031442000181,None,space,14.990585799998371,728.5031442000181,None,p,001,2021_Jul_08_1534,toilet,2021.1.3,99.88872398050411,
180,180,-4,4,1.06,,,,,2,0,2,0,0,0,0,33,,,,,,,,,,,,,,,,,743.5133290000085,None,space,0.6682842999871355,743.5133290000085,None,745.1945342000108,None,745.1945342000108,None,744.6941923999984,None,j,2.1070394000271335,745.1945342000108,None,,,,,,,p,001,2021_Jul_08_1534,toilet,2021.1.3,99.88872398050411,
180,0,-4,4,0.94,,,,,2,0,2,0,0,1,1,43,,,,,,,,,,,,,,,,,,,,,,,748.3065713000251,None,748.3065713000251,None,747.8062284000043,None,f,1.1071992999932263,748.3065713000251,None,,,,,,,p,001,2021_Jul_08_1534,toilet,2021.1.3,99.88872398050411,
0,0,4,-4,1.0,,,,,2,0,2,0,0,2,2,10,,,,,,,,,,,,,,,,,,,,,,,750.4280066000065,None,750.4280066000065,None,749.9276663000055,None,f,1.4816620999772567,750.4280066000065,None,,,,,,,p,001,2021_Jul_08_1534,toilet,2021.1.3,99.88872398050411,
0,180,4,-4,1.03,,,,,2,0,2,0,0,3,3,25,,,,,,,,,,,,,,,,,,,,,,,752.919695300021,None,752.919695300021,None,752.4194320000242,None,f,0.9419987000001129,752.919695300021,None,,,,,,,p,001,2021_Jul_08_1534,toilet,2021.1.3,99.88872398050411,
0,180,4,-4,0.85,,,,,2,0,2,0,0,4,4,21,,,,,,,,,,,,,,,,,,,,,,,754.8710252000019,None,754.8710252000019,None,754.3706792000157,None,j,0.5266128999937791,754.8710252000019,None,,,,,,,p,001,2021_Jul_08_1534,toilet,2021.1.3,99.88872398050411,
180,180,4,-4,0.94,,,,,2,0,2,0,0,5,5,36,,,,,,,,,,,,,,,,,,,,,,,756.4020552000147,None,756.4020552000147,None,755.9017209000012,None,j,0.5475930999964476,756.4020552000147,None,,,,,,,p,001,2021_Jul_08_1534,toilet,2021.1.3,99.88872398050411,
0,180,4,-4,1.15,,,,,2,0,2,0,0,6,6,27,,,,,,,,,,,,,,,,,,,,,,,757.9531086000206,None,757.9531086000206,None,757.4527663000044,None,f,0.5325871999957599,757.9531086000206,None,,,,,,,p,001,2021_Jul_08_1534,toilet,2021.1.3,99.88872398050411,
180,180,4,-4,1.0,,,,,2,0,2,0,0,7,7,38,,,,,,,,,,,,,,,,,,,,,,,759.4942353000224,None,759.4942353000224,None,758.993813500012,None,f,1.2473519000050146,759.4942353000224,None,,,,,,,p,001,2021_Jul_08_1534,toilet,2021.1.3,99.88872398050411,
180,180,-4,4,1.15,,,,,2,0,2,0,0,8,8,34,,,,,,,,,,,,,,,,,,,,,,,761.7456806000264,None,761.7456806000264,None,761.2453372000018,None,j,0.5159103999903891,761.7456806000264,None,,,,,,,p,001,2021_Jul_08_1534,toilet,2021.1.3,99.88872398050411,
0,180,-4,4,1.15,,,,,2,0,2,0,0,9,9,20,,,,,,,,,,,,,,,,,,,,,,,763.2667156000098,None,763.2667156000098,None,762.7663706000021,None,j,0.8668791000091005,763.2667156000098,None,,,,,,,p,001,2021_Jul_08_1534,toilet,2021.1.3,99.88872398050411,
0,0,-4,4,0.94,,,,,2,0,2,0,0,10,10,1,,,,,,,,,,,,,,,,,,,,,,,765.1379813000094,None,765.1379813000094,None,764.6376435999991,None,f,1.4757530000060797,765.1379813000094,None,,,,,,,p,001,2021_Jul_08_1534,toilet,2021.1.3,99.88872398050411,
180,0,4,-4,0.94,,,,,2,0,2,0,0,11,11,50,,,,,,,,,,,,,,,,,,,,,,,767.6297494000173,None,767.6297494000173,None,767.1293328000174,None,j,0.47199940000427887,767.6297494000173,None,,,,,,,p,001,2021_Jul_08_1534,toilet,2021.1.3,99.88872398050411,
180,0,4,-4,1.03,,,,,2,0,2,0,0,12,12,53,,,,,,,,,,,,,,,,,,,,,,,769.110674000025,None,769.110674000025,None,768.6103354000079,None,f,0.8629731999826618,769.110674000025,None,,,,,,,p,001,2021_Jul_08_1534,toilet,2021.1.3,99.88872398050411,
0,180,4,-4,0.97,,,,,2,0,2,0,0,13,13,23,,,,,,,,,,,,,,,,,,,,,,,770.9819454000099,None,770.9819454000099,None,770.4816032000235,None,f,0.46384710000711493,770.9819454000099,None,,,,,,,p,001,2021_Jul_08_1534,toilet,2021.1.3,99.88872398050411,
0,180,4,-4,1.0,,,,,2,0,2,0,0,14,14,24,,,,,,,,,,,,,,,,,,,,,,,772.4629493000102,None,772.4629493000102,None,771.9626175000158,None,j,0.838672600017162,772.4629493000102,None,,,,,,,p,001,2021_Jul_08_1534,toilet,2021.1.3,99.88872398050411,
0,0,4,-4,0.97,,,,,2,0,2,0,0,15,15,9,,,,,,,,,,,,,,,,,,,,,,,774.3142070000176,None,774.3142070000176,None,773.8139442000247,None,j,0.5555229000165127,774.3142070000176,None,,,,,,,p,001,2021_Jul_08_1534,toilet,2021.1.3,99.88872398050411,
180,180,-4,4,1.03,,,,,2,0,2,0,0,16,16,32,,,,,,,,,,,,,,,,,,,,,,,775.885302700015,None,775.885302700015,None,775.384940900025,None,j,0.8562645000056364,775.885302700015,None,,,,,,,p,001,2021_Jul_08_1534,toilet,2021.1.3,99.88872398050411,
180,0,4,-4,1.15,,,,,2,0,2,0,0,17,17,55,,,,,,,,,,,,,,,,,,,,,,,777.7465380000067,None,777.7465380000067,None,777.2461917000182,None,f,0.48314110000501387,777.7465380000067,None,,,,,,,p,001,2021_Jul_08_1534,toilet,2021.1.3,99.88872398050411,
0,0,4,-4,1.15,,,,,2,0,2,0,0,18,18,13,,,,,,,,,,,,,,,,,,,,,,,779.2575414000021,None,779.2575414000021,None,778.757196999999,None,f,0.5401424999872688,779.2575414000021,None,,,,,,,p,001,2021_Jul_08_1534,toilet,2021.1.3,99.88872398050411,
0,180,4,-4,0.94,,,,,2,0,2,0,0,19,19,22,,,,,,,,,,,,,,,,,,,,,,,780.8086050999991,None,780.8086050999991,None,780.3082693000033,None,j,1.5490731000027154,780.8086050999991,None,,,,,,,p,001,2021_Jul_08_1534,toilet,2021.1.3,99.88872398050411,
180,180,-4,4,0.85,,,,,2,0,2,0,0,20,20,28,,,,,,,,,,,,,,,,,,,,,,,783.3703444999992,None,783.3703444999992,None,782.870006800018,None,f,0.5393334999971557,783.3703444999992,None,,,,,,,p,001,2021_Jul_08_1534,toilet,2021.1.3,99.88872398050411,
180,180,-4,4,1.0,,,,,2,0,2,0,0,21,21,31,,,,,,,,,,,,,,,,,,,,,,,784.9113881000085,None,784.9113881000085,None,784.4110520000104,None,f,0.8701971999835223,784.9113881000085,None,,,,,,,p,001,2021_Jul_08_1534,toilet,2021.1.3,99.88872398050411,
180,0,4,-4,1.06,,,,,2,0,2,0,0,22,22,54,,,,,,,,,,,,,,,,,,,,,,,786.7826577000087,None,786.7826577000087,None,786.2823274000257,None,f,0.5830297000065912,786.7826577000087,None,,,,,,,p,001,2021_Jul_08_1534,toilet,2021.1.3,99.88872398050411,
180,0,-4,4,0.85,,,,,2,0,2,0,0,23,23,42,,,,,,,,,,,,,,,,,,,,,,,788.3837404000224,None,788.3837404000224,None,787.8834048999997,None,f,0.5499199999903794,788.3837404000224,None,,,,,,,p,001,2021_Jul_08_1534,toilet,2021.1.3,99.88872398050411,
180,180,4,-4,0.97,,,,,2,0,2,0,0,24,24,37,,,,,,,,,,,,,,,,,,,,,,,789.9448850000044,None,789.9448850000044,None,789.4445504000178,None,j,0.476909799996065,789.9448850000044,None,,,,,,,p,001,2021_Jul_08_1534,toilet,2021.1.3,99.88872398050411,
0,0,-4,4,1.06,,,,,2,0,2,0,0,25,25,5,,,,,,,,,,,,,,,,,,,,,,,791.4358166000166,None,791.4358166000166,None,790.9354741999996,None,j,0.5377793000079691,791.4358166000166,None,,,,,,,p,001,2021_Jul_08_1534,toilet,2021.1.3,99.88872398050411,
0,180,4,-4,1.06,,,,,2,0,2,0,0,26,26,26,,,,,,,,,,,,,,,,,,,,,,,792.9768605999998,None,792.9768605999998,None,792.476527700026,None,f,0.404878400004236,792.9768605999998,None,,,,,,,p,001,2021_Jul_08_1534,toilet,2021.1.3,99.88872398050411,
0,0,4,-4,0.94,,,,,2,0,2,0,0,27,27,8,,,,,,,,,,,,,,,,,,,,,,,794.3978281000163,None,794.3978281000163,None,793.8974877000146,None,j,0.536000599997351,794.3978281000163,None,,,,,,,p,001,2021_Jul_08_1534,toilet,2021.1.3,99.88872398050411,
0,0,-4,4,1.03,,,,,2,0,2,0,0,28,28,4,,,,,,,,,,,,,,,,,,,,,,,795.938942400011,None,795.938942400011,None,795.4485350000032,None,f,0.49871909999637865,795.938942400011,None,,,,,,,p,001,2021_Jul_08_1534,toilet,2021.1.3,99.88872398050411,
0,180,-4,4,1.0,,,,,2,0,2,0,0,29,29,17,,,,,,,,,,,,,,,,,,,,,,,797.4499836000032,None,797.4499836000032,None,796.9496365000086,None,f,0.8755993999948259,797.4499836000032,None,,,,,,,p,001,2021_Jul_08_1534,toilet,2021.1.3,99.88872398050411,
180,0,-4,4,0.97,,,,,2,0,2,0,0,30,30,44,,,,,,,,,,,,,,,,,,,,,,,799.3311704000225,None,799.3311704000225,None,798.8308276000025,None,f,1.7785979000036605,799.3311704000225,None,,,,,,,p,001,2021_Jul_08_1534,toilet,2021.1.3,99.88872398050411,
180,0,-4,4,1.06,,,,,2,0,2,0,0,31,31,47,,,,,,,,,,,,,,,,,,,,,,,802.1230605000164,None,802.1230605000164,None,801.6227226000046,None,j,0.9546912999940105,802.1230605000164,None,,,,,,,p,001,2021_Jul_08_1534,toilet,2021.1.3,99.88872398050411,
0,0,4,-4,0.85,,,,,2,0,2,0,0,32,32,7,,,,,,,,,,,,,,,,,,,,,,,804.094475800026,None,804.094475800026,None,803.5940575000132,None,j,0.6791773999866564,804.094475800026,None,,,,,,,p,001,2021_Jul_08_1534,toilet,2021.1.3,99.88872398050411,
0,180,-4,4,1.03,,,,,2,0,2,0,0,33,33,18,,,,,,,,,,,,,,,,,,,,,,,805.7855483000167,None,805.7855483000167,None,805.2852436000248,None,f,0.8600241999956779,805.7855483000167,None,,,,,,,p,001,2021_Jul_08_1534,toilet,2021.1.3,99.88872398050411,
180,0,-4,4,1.15,,,,,2,0,2,0,0,34,34,48,,,,,,,,,,,,,,,,,,,,,,,807.6468075000157,None,807.6468075000157,None,807.1465061000199,None,j,0.646994500013534,807.6468075000157,None,,,,,,,p,001,2021_Jul_08_1534,toilet,2021.1.3,99.88872398050411,
0,180,-4,4,1.06,,,,,2,0,2,0,0,35,35,19,,,,,,,,,,,,,,,,,,,,,,,809.3079314000206,None,809.3079314000206,None,808.8075957000256,None,f,1.1617147999932058,809.3079314000206,None,,,,,,,p,001,2021_Jul_08_1534,toilet,2021.1.3,99.88872398050411,
180,0,4,-4,0.97,,,,,2,0,2,0,0,36,36,51,,,,,,,,,,,,,,,,,,,,,,,811.4693977000134,None,811.4693977000134,None,810.9791579000012,None,j,0.9523558000219055,811.4693977000134,None,,,,,,,p,001,2021_Jul_08_1534,toilet,2021.1.3,99.88872398050411,
0,0,4,-4,1.06,,,,,2,0,2,0,0,37,37,12,,,,,,,,,,,,,,,,,,,,,,,813.4307311000011,None,813.4307311000011,None,812.9303930000169,None,f,0.8628310000058264,813.4307311000011,None,,,,,,,p,001,2021_Jul_08_1534,toilet,2021.1.3,99.88872398050411,
180,180,4,-4,1.06,,,,,2,0,2,0,0,38,38,40,,,,,,,,,,,,,,,,,,,,,,,815.3020006000006,None,815.3020006000006,None,814.8016689000069,None,f,0.8796850999933667,815.3020006000006,None,,,,,,,p,001,2021_Jul_08_1534,toilet,2021.1.3,99.88872398050411,
0,0,-4,4,1.15,,,,,2,0,2,0,0,39,39,6,,,,,,,,,,,,,,,,,,,,,,,817.1932785000245,None,817.1932785000245,None,816.6929609000217,None,j,0.47643540002172813,817.1932785000245,None,,,,,,,p,001,2021_Jul_08_1534,toilet,2021.1.3,99.88872398050411,
0,0,-4,4,0.97,,,,,2,0,2,0,0,40,40,2,,,,,,,,,,,,,,,,,,,,,,,818.6842866000079,None,818.6842866000079,None,818.1840355000168,None,f,0.6013872000039555,818.6842866000079,None,,,,,,,p,001,2021_Jul_08_1534,toilet,2021.1.3,99.88872398050411,
0,180,-4,4,0.85,,,,,2,0,2,0,0,41,41,14,,,,,,,,,,,,,,,,,,,,,,,820.2953811000043,None,820.2953811000043,None,819.7950424000155,None,f,0.4623424999881536,820.2953811000043,None,,,,,,,p,001,2021_Jul_08_1534,toilet,2021.1.3,99.88872398050411,
180,0,-4,4,1.03,,,,,2,0,2,0,0,42,42,46,,,,,,,,,,,,,,,,,,,,,,,821.7667737000156,None,821.7667737000156,None,821.2660369000223,None,j,0.6228793000045698,821.7667737000156,None,,,,,,,p,001,2021_Jul_08_1534,toilet,2021.1.3,99.88872398050411,
180,180,4,-4,1.03,,,,,2,0,2,0,0,43,43,39,,,,,,,,,,,,,,,,,,,,,,,823.3974872000108,None,823.3974872000108,None,822.8971528000257,None,f,0.44829440000467,823.3974872000108,None,,,,,,,p,001,2021_Jul_08_1534,toilet,2021.1.3,99.88872398050411,
0,0,-4,4,1.0,,,,,2,0,2,0,0,44,44,3,,,,,,,,,,,,,,,,,,,,,,,824.8584717000194,None,824.8584717000194,None,824.3581332000031,None,f,2.9070909000001848,824.8584717000194,None,,,,,,,p,001,2021_Jul_08_1534,toilet,2021.1.3,99.88872398050411,
180,180,-4,4,0.94,,,,,2,0,2,0,0,45,45,29,,,,,,,,,,,,,,,,,,,,,,,828.7711296000052,None,828.7711296000052,None,828.2707923999988,None,f,0.674533799989149,828.7711296000052,None,,,,,,,p,001,2021_Jul_08_1534,toilet,2021.1.3,99.88872398050411,
180,180,-4,4,0.97,,,,,2,0,2,0,0,46,46,30,,,,,,,,,,,,,,,,,,,,,,,830.4622813000169,None,830.4622813000169,None,829.9619436000066,None,f,0.6793497999897227,830.4622813000169,None,,,,,,,p,001,2021_Jul_08_1534,toilet,2021.1.3,99.88872398050411,
0,0,4,-4,1.03,,,,,2,0,2,0,0,47,47,11,,,,,,,,,,,,,,,,,,,,,,,832.1534275000158,None,832.1534275000158,None,831.6530858000042,None,f,1.0682146000035573,832.1534275000158,None,,,,,,,p,001,2021_Jul_08_1534,toilet,2021.1.3,99.88872398050411,
0,180,-4,4,0.94,,,,,2,0,2,0,0,48,48,15,,,,,,,,,,,,,,,,,,,,,,,834.2348400000192,None,834.2348400000192,None,833.7345731000241,None,f,1.2268571000022348,834.2348400000192,None,,,,,,,p,001,2021_Jul_08_1534,toilet,2021.1.3,99.88872398050411,
180,0,4,-4,0.85,,,,,2,0,2,0,0,49,49,49,,,,,,,,,,,,,,,,,,,,,,,836.4663452000241,None,836.4663452000241,None,835.966006600007,None,j,0.627310200012289,836.4663452000241,None,,,,,,,p,001,2021_Jul_08_1534,toilet,2021.1.3,99.88872398050411,
180,180,4,-4,1.15,,,,,2,0,2,0,0,50,50,41,,,,,,,,,,,,,,,,,,,,,,,838.0974496000272,None,838.0974496000272,None,837.59711230002,None,f,0.5162602000054903,838.0974496000272,None,,,,,,,p,001,2021_Jul_08_1534,toilet,2021.1.3,99.88872398050411,
180,0,-4,4,1.0,,,,,2,0,2,0,0,51,51,45,,,,,,,,,,,,,,,,,,,,,,,839.638494200015,None,839.638494200015,None,839.1381545000186,None,j,1.0391432000033092,839.638494200015,None,,,,,,,p,001,2021_Jul_08_1534,toilet,2021.1.3,99.88872398050411,
0,180,-4,4,0.97,,,,,2,0,2,0,0,52,52,16,,,,,,,,,,,,,,,,,,,,,,,841.6799770000216,None,841.6799770000216,None,841.1796300999995,None,f,0.9016809000167996,841.6799770000216,None,,,,,,,p,001,2021_Jul_08_1534,toilet,2021.1.3,99.88872398050411,
180,180,4,-4,0.85,,,,,2,0,2,0,0,53,53,35,,,,,,,,,,,,,,,,,,,,,,,843.5811685000081,None,843.5811685000081,None,843.080827400001,None,j,0.5523885000147857,843.5811685000081,None,,,,,,,p,001,2021_Jul_08_1534,toilet,2021.1.3,99.88872398050411,
180,0,4,-4,1.0,,,,,2,0,2,0,0,54,54,52,,,,,,,,,,,,,,,,,,,,,,,845.1422288000176,None,845.1422288000176,None,844.6418882000144,None,f,0.5754858000145759,845.1422288000176,None,,,,,,,p,001,2021_Jul_08_1534,toilet,2021.1.3,99.88872398050411,
0,0,-4,4,0.85,,,,,2,0,2,0,0,55,55,0,,,,,,,,,,,,,,,,,,,,,,,846.7433110999991,None,846.7433110999991,None,846.2429758000071,None,f,0.4943904999818187,846.7433110999991,None,,,,,,,p,001,2021_Jul_08_1534,toilet,2021.1.3,99.88872398050411,
0,180,4,-4,1.0,,,,,2,0,2,0,1,0,56,24,,,,,,,,,,,,,,,,,,,,,,,848.2645489000133,None,848.2645489000133,None,847.7640074000228,None,j,0.7811058000079356,848.2645489000133,None,,,,,,,p,001,2021_Jul_08_1534,toilet,2021.1.3,99.88872398050411,
180,180,4,-4,1.15,,,,,2,0,2,0,1,1,57,41,,,,,,,,,,,,,,,,,,,,,,,850.0555586000264,None,850.0555586000264,None,849.5552272000059,None,f,0.4460986999911256,850.0555586000264,None,,,,,,,p,001,2021_Jul_08_1534,toilet,2021.1.3,99.88872398050411,
0,180,-4,4,1.06,,,,,2,0,2,0,1,2,58,19,,,,,,,,,,,,,,,,,,,,,,,851.5065434999997,None,851.5065434999997,None,851.0062304000021,None,j,0.5470029999851249,851.5065434999997,None,,,,,,,p,001,2021_Jul_08_1534,toilet,2021.1.3,99.88872398050411,
0,180,4,-4,0.85,,,,,2,0,2,0,1,3,59,21,,,,,,,,,,,,,,,,,,,,,,,853.0576023000176,None,853.0576023000176,None,852.5572550000215,None,j,0.5482002999924589,853.0576023000176,None,,,,,,,p,001,2021_Jul_08_1534,toilet,2021.1.3,99.88872398050411,
180,0,4,-4,0.85,,,,,2,0,2,0,1,4,60,49,,,,,,,,,,,,,,,,,,,,,,,854.6186592000013,None,854.6186592000013,None,854.1183181000233,None,j,0.45899179999832995,854.6186592000013,None,,,,,,,p,001,2021_Jul_08_1534,toilet,2021.1.3,99.88872398050411,
0,180,-4,4,1.15,,,,,2,0,2,0,1,5,61,20,,,,,,,,,,,,,,,,,,,,,,,856.0897468000185,None,856.0897468000185,None,855.5894083000021,None,j,0.4439139000023715,856.0897468000185,None,,,,,,,p,001,2021_Jul_08_1534,toilet,2021.1.3,99.88872398050411,
0,0,-4,4,1.15,,,,,2,0,2,0,1,6,62,6,,,,,,,,,,,,,,,,,,,,,,,857.5406395000173,None,857.5406395000173,None,857.0403021000093,None,j,0.41699299999163486,857.5406395000173,None,,,,,,,p,001,2021_Jul_08_1534,toilet,2021.1.3,99.88872398050411,
0,0,-4,4,0.97,,,,,2,0,2,0,1,7,63,2,,,,,,,,,,,,,,,,,,,,,,,858.9616066000017,None,858.9616066000017,None,858.461265400023,None,f,0.7720553999824915,858.9616066000017,None,,,,,,,p,001,2021_Jul_08_1534,toilet,2021.1.3,99.88872398050411,
180,0,-4,4,0.97,,,,,2,0,2,0,1,8,64,44,,,,,,,,,,,,,,,,,,,,,,,860.7428112000052,None,860.7428112000052,None,860.2424724000157,None,j,1.8868998999823816,860.7428112000052,None,,,,,,,p,001,2021_Jul_08_1534,toilet,2021.1.3,99.88872398050411,
0,180,4,-4,1.06,,,,,2,0,2,0,1,9,65,26,,,,,,,,,,,,,,,,,,,,,,,863.644777700014,None,863.644777700014,None,863.1445168000064,None,f,0.6968311000091489,863.644777700014,None,,,,,,,p,001,2021_Jul_08_1534,toilet,2021.1.3,99.88872398050411,
0,180,4,-4,1.03,,,,,2,0,2,0,1,10,66,25,,,,,,,,,,,,,,,,,,,,,,,865.3459373000078,None,865.3459373000078,None,864.8455944000161,None,j,1.0917164999991655,865.3459373000078,None,,,,,,,p,001,2021_Jul_08_1534,toilet,2021.1.3,99.88872398050411,
180,0,4,-4,1.0,,,,,2,0,2,0,1,11,67,52,,,,,,,,,,,,,,,,,,,,,,,867.4373493000166,None,867.4373493000166,None,866.9370150000032,None,j,0.8083648000028916,867.4373493000166,None,,,,,,,p,001,2021_Jul_08_1534,toilet,2021.1.3,99.88872398050411,
0,0,4,-4,1.15,,,,,2,0,2,0,1,12,68,13,,,,,,,,,,,,,,,,,,,,,,,869.2585864000139,None,869.2585864000139,None,868.7582453000068,None,f,0.44298809999600053,869.2585864000139,None,,,,,,,p,001,2021_Jul_08_1534,toilet,2021.1.3,99.88872398050411,
180,180,-4,4,1.03,,,,,2,0,2,0,1,13,69,32,,,,,,,,,,,,,,,,,,,,,,,870.7096501000051,None,870.7096501000051,None,870.2093293000071,None,j,1.0399464000074659,870.7096501000051,None,,,,,,,p,001,2021_Jul_08_1534,toilet,2021.1.3,99.88872398050411,
180,0,4,-4,1.03,,,,,2,0,2,0,1,14,70,53,,,,,,,,,,,,,,,,,,,,,,,872.7509570000111,None,872.7509570000111,None,872.2506114999996,None,f,0.486590000014985,872.7509570000111,None,,,,,,,p,001,2021_Jul_08_1534,toilet,2021.1.3,99.88872398050411,
180,180,-4,4,0.94,,,,,2,0,2,0,1,15,71,29,,,,,,,,,,,,,,,,,,,,,,,874.2419665000052,None,874.2419665000052,None,873.7416215999983,None,f,0.5157261999847833,874.2419665000052,None,,,,,,,p,001,2021_Jul_08_1534,toilet,2021.1.3,99.88872398050411,
180,180,4,-4,1.06,,,,,2,0,2,0,1,16,72,40,,,,,,,,,,,,,,,,,,,,,,,875.7729996000126,None,875.7729996000126,None,875.2726685000234,None,f,0.48861369999940507,875.7729996000126,None,,,,,,,p,001,2021_Jul_08_1534,toilet,2021.1.3,99.88872398050411,
0,180,-4,4,0.85,,,,,2,0,2,0,1,17,73,14,,,,,,,,,,,,,,,,,,,,,,,877.2740214000223,None,877.2740214000223,None,876.7737756000133,None,f,0.4276813000033144,877.2740214000223,None,,,,,,,p,001,2021_Jul_08_1534,toilet,2021.1.3,99.88872398050411,
180,0,-4,4,1.15,,,,,2,0,2,0,1,18,74,48,,,,,,,,,,,,,,,,,,,,,,,878.7150882999995,None,878.7150882999995,None,878.2147346000129,None,j,0.45847039998625405,878.7150882999995,None,,,,,,,p,001,2021_Jul_08_1534,toilet,2021.1.3,99.88872398050411,
0,0,4,-4,0.85,,,,,2,0,2,0,1,19,75,7,,,,,,,,,,,,,,,,,,,,,,,880.1759895000141,None,880.1759895000141,None,879.6756467000232,None,j,0.4855933999933768,880.1759895000141,None,,,,,,,p,001,2021_Jul_08_1534,toilet,2021.1.3,99.88872398050411,
0,180,4,-4,0.97,,,,,2,0,2,0,1,20,76,23,,,,,,,,,,,,,,,,,,,,,,,881.6669993000105,None,881.6669993000105,None,881.1666654,None,j,0.6586948000185657,881.6669993000105,None,,,,,,,p,001,2021_Jul_08_1534,toilet,2021.1.3,99.88872398050411,
180,0,-4,4,1.0,,,,,2,0,2,0,1,21,77,45,,,,,,,,,,,,,,,,,,,,,,,883.3381296000152,None,883.3381296000152,None,882.8377933000156,None,j,0.715660999994725,883.3381296000152,None,,,,,,,p,001,2021_Jul_08_1534,toilet,2021.1.3,99.88872398050411,
0,0,4,-4,1.03,,,,,2,0,2,0,1,22,78,11,,,,,,,,,,,,,,,,,,,,,,,885.0593755000154,None,885.0593755000154,None,884.5589582000102,None,f,0.4821885999990627,885.0593755000154,None,,,,,,,p,001,2021_Jul_08_1534,toilet,2021.1.3,99.88872398050411,
180,180,-4,4,1.0,,,,,2,0,2,0,1,23,79,31,,,,,,,,,,,,,,,,,,,,,,,886.5503142000234,None,886.5503142000234,None,886.0500505000236,None,f,0.5592335000110324,886.5503142000234,None,,,,,,,p,001,2021_Jul_08_1534,toilet,2021.1.3,99.88872398050411,
0,0,4,-4,0.97,,,,,2,0,2,0,1,24,80,9,,,,,,,,,,,,,,,,,,,,,,,888.1113705000025,None,888.1113705000025,None,887.6110336999991,None,j,0.5661623000050895,888.1113705000025,None,,,,,,,p,001,2021_Jul_08_1534,toilet,2021.1.3,99.88872398050411,
180,0,4,-4,0.97,,,,,2,0,2,0,1,25,81,51,,,,,,,,,,,,,,,,,,,,,,,889.6824327000068,None,889.6824327000068,None,889.1820951000263,None,j,0.7551148999773432,889.6824327000068,None,,,,,,,p,001,2021_Jul_08_1534,toilet,2021.1.3,99.88872398050411,
180,0,-4,4,0.85,,,,,2,0,2,0,1,26,82,42,,,,,,,,,,,,,,,,,,,,,,,891.4537217000034,None,891.4537217000034,None,890.9532814000268,None,f,0.4878191000025254,891.4537217000034,None,,,,,,,p,001,2021_Jul_08_1534,toilet,2021.1.3,99.88872398050411,
0,180,-4,4,1.03,,,,,2,0,2,0,1,27,83,18,,,,,,,,,,,,,,,,,,,,,,,892.9447203000018,None,892.9447203000018,None,892.4443854000128,None,j,0.5489326999813784,892.9447203000018,None,,,,,,,p,001,2021_Jul_08_1534,toilet,2021.1.3,99.88872398050411,
0,0,4,-4,1.06,,,,,2,0,2,0,1,28,84,12,,,,,,,,,,,,,,,,,,,,,,,894.5057017000217,None,894.5057017000217,None,894.0053659000259,None,f,0.4598345000122208,894.5057017000217,None,,,,,,,p,001,2021_Jul_08_1534,toilet,2021.1.3,99.88872398050411,
180,180,-4,4,0.85,,,,,2,0,2,0,1,29,85,28,,,,,,,,,,,,,,,,,,,,,,,895.96669630002,None,895.96669630002,None,895.4663523000199,None,f,0.5028621999954339,895.96669630002,None,,,,,,,p,001,2021_Jul_08_1534,toilet,2021.1.3,99.88872398050411,
180,0,4,-4,1.15,,,,,2,0,2,0,1,30,86,55,,,,,,,,,,,,,,,,,,,,,,,897.4777165000269,None,897.4777165000269,None,896.9773802999989,None,f,0.5119278999918606,897.4777165000269,None,,,,,,,p,001,2021_Jul_08_1534,toilet,2021.1.3,99.88872398050411,
180,180,4,-4,0.94,,,,,2,0,2,0,1,31,87,36,,,,,,,,,,,,,,,,,,,,,,,898.9987515000103,None,898.9987515000103,None,898.4984135999985,None,j,0.6069539000163786,898.9987515000103,None,,,,,,,p,001,2021_Jul_08_1534,toilet,2021.1.3,99.88872398050411,
0,180,4,-4,1.15,,,,,2,0,2,0,1,32,88,27,,,,,,,,,,,,,,,,,,,,,,,900.6199254000094,None,900.6199254000094,None,900.1195178000198,None,f,0.4097332999808714,900.6199254000094,None,,,,,,,p,001,2021_Jul_08_1534,toilet,2021.1.3,99.88872398050411,
0,180,-4,4,1.0,,,,,2,0,2,0,1,33,89,17,,,,,,,,,,,,,,,,,,,,,,,902.030802400026,None,902.030802400026,None,901.540478800016,None,j,0.4866942999942694,902.030802400026,None,,,,,,,p,001,2021_Jul_08_1534,toilet,2021.1.3,99.88872398050411,
180,180,4,-4,1.03,,,,,2,0,2,0,1,34,90,39,,,,,,,,,,,,,,,,,,,,,,,903.5218133000017,None,903.5218133000017,None,903.0214723000245,None,f,0.4838210000016261,903.5218133000017,None,,,,,,,p,001,2021_Jul_08_1534,toilet,2021.1.3,99.88872398050411,
0,0,-4,4,1.06,,,,,2,0,2,0,1,35,91,5,,,,,,,,,,,,,,,,,,,,,,,905.0228304000048,None,905.0228304000048,None,904.5224970999989,None,j,0.758714499999769,905.0228304000048,None,,,,,,,p,001,2021_Jul_08_1534,toilet,2021.1.3,99.88872398050411,
180,180,-4,4,0.97,,,,,2,0,2,0,1,36,92,30,,,,,,,,,,,,,,,,,,,,,,,906.7840450000076,None,906.7840450000076,None,906.2836869000166,None,f,0.4857804999919608,906.7840450000076,None,,,,,,,p,001,2021_Jul_08_1534,toilet,2021.1.3,99.88872398050411,
180,0,-4,4,1.06,,,,,2,0,2,0,1,37,93,47,,,,,,,,,,,,,,,,,,,,,,,908.2850667000166,None,908.2850667000166,None,907.7847886000236,None,j,0.5045124999887776,908.2850667000166,None,,,,,,,p,001,2021_Jul_08_1534,toilet,2021.1.3,99.88872398050411,
0,180,-4,4,0.97,,,,,2,0,2,0,1,38,94,16,,,,,,,,,,,,,,,,,,,,,,,909.7960720000265,None,909.7960720000265,None,909.2957332000078,None,j,0.5774564000021201,909.7960720000265,None,,,,,,,p,001,2021_Jul_08_1534,toilet,2021.1.3,99.88872398050411,
0,0,-4,4,1.03,,,,,2,0,2,0,1,39,95,4,,,,,,,,,,,,,,,,,,,,,,,911.3771414000075,None,911.3771414000075,None,910.8768043000018,None,j,0.804557700001169,911.3771414000075,None,,,,,,,p,001,2021_Jul_08_1534,toilet,2021.1.3,99.88872398050411,
0,0,4,-4,1.0,,,,,2,0,2,0,1,40,96,10,,,,,,,,,,,,,,,,,,,,,,,913.1983836000145,None,913.1983836000145,None,912.6980430000112,None,j,0.5673085000016727,913.1983836000145,None,,,,,,,p,001,2021_Jul_08_1534,toilet,2021.1.3,99.88872398050411,
0,180,4,-4,0.94,,,,,2,0,2,0,1,41,97,22,,,,,,,,,,,,,,,,,,,,,,,914.7795232000062,None,914.7795232000062,None,914.2791176000028,None,j,0.5221461999753956,914.7795232000062,None,,,,,,,p,001,2021_Jul_08_1534,toilet,2021.1.3,99.88872398050411,
0,0,-4,4,0.85,,,,,2,0,2,0,1,42,98,0,,,,,,,,,,,,,,,,,,,,,,,916.3104932999995,None,916.3104932999995,None,915.8101543000084,None,f,0.47903089999454096,916.3104932999995,None,,,,,,,p,001,2021_Jul_08_1534,toilet,2021.1.3,99.88872398050411,
180,180,-4,4,1.06,,,,,2,0,2,0,1,43,99,33,,,,,,,,,,,,,,,,,,,,,,,917.7914818999998,None,917.7914818999998,None,917.2911514000152,None,j,0.5182343999913428,917.7914818999998,None,,,,,,,p,001,2021_Jul_08_1534,toilet,2021.1.3,99.88872398050411,
180,0,-4,4,1.03,,,,,2,0,2,0,1,44,100,46,,,,,,,,,,,,,,,,,,,,,,,919.3225310000125,None,919.3225310000125,None,918.8221933000023,None,j,0.5230791000067256,919.3225310000125,None,,,,,,,p,001,2021_Jul_08_1534,toilet,2021.1.3,99.88872398050411,
0,0,-4,4,1.0,,,,,2,0,2,0,1,45,101,3,,,,,,,,,,,,,,,,,,,,,,,920.8535660000052,None,920.8535660000052,None,920.3532285000256,None,f,0.49625229998491704,920.8535660000052,None,,,,,,,p,001,2021_Jul_08_1534,toilet,2021.1.3,99.88872398050411,
180,0,4,-4,0.94,,,,,2,0,2,0,1,46,102,50,,,,,,,,,,,,,,,,,,,,,,,922.3646698000084,None,922.3646698000084,None,921.8643482000043,None,j,0.4570755999884568,922.3646698000084,None,,,,,,,p,001,2021_Jul_08_1534,toilet,2021.1.3,99.88872398050411,
0,180,-4,4,0.94,,,,,2,0,2,0,1,47,103,15,,,,,,,,,,,,,,,,,,,,,,,923.8356002000219,None,923.8356002000219,None,923.3352663000114,None,f,0.6178809000120964,923.8356002000219,None,,,,,,,p,001,2021_Jul_08_1534,toilet,2021.1.3,99.88872398050411,
180,180,-4,4,1.15,,,,,2,0,2,0,1,48,104,34,,,,,,,,,,,,,,,,,,,,,,,925.4566871999996,None,925.4566871999996,None,924.9563270000217,None,j,0.4529268000042066,925.4566871999996,None,,,,,,,p,001,2021_Jul_08_1534,toilet,2021.1.3,99.88872398050411,
180,0,-4,4,0.94,,,,,2,0,2,0,1,49,105,43,,,,,,,,,,,,,,,,,,,,,,,926.917680100014,None,926.917680100014,None,926.4173454000265,None,f,0.6399168000207283,926.917680100014,None,,,,,,,p,001,2021_Jul_08_1534,toilet,2021.1.3,99.88872398050411,
180,180,4,-4,1.0,,,,,2,0,2,0,1,50,106,38,,,,,,,,,,,,,,,,,,,,,,,928.5687953000015,None,928.5687953000015,None,928.0684608000156,None,j,1.1648666999826673,928.5687953000015,None,,,,,,,p,001,2021_Jul_08_1534,toilet,2021.1.3,99.88872398050411,
180,180,4,-4,0.85,,,,,2,0,2,0,1,51,107,35,,,,,,,,,,,,,,,,,,,,,,,930.7502767000115,None,930.7502767000115,None,930.2500293000194,None,j,0.48723769999924116,930.7502767000115,None,,,,,,,p,001,2021_Jul_08_1534,toilet,2021.1.3,99.88872398050411,
180,0,4,-4,1.06,,,,,2,0,2,0,1,52,108,54,,,,,,,,,,,,,,,,,,,,,,,932.2412885000231,None,932.2412885000231,None,931.7409469000122,None,f,0.6764302999945357,932.2412885000231,None,,,,,,,p,001,2021_Jul_08_1534,toilet,2021.1.3,99.88872398050411,
180,180,4,-4,0.97,,,,,2,0,2,0,1,53,109,37,,,,,,,,,,,,,,,,,,,,,,,933.9324381000188,None,933.9324381000188,None,933.4321007000108,None,j,0.6491555999964476,933.9324381000188,None,,,,,,,p,001,2021_Jul_08_1534,toilet,2021.1.3,99.88872398050411,
0,0,-4,4,0.94,,,,,2,0,2,0,1,54,110,1,,,,,,,,,,,,,,,,,,,,,,,935.5935786000045,None,935.5935786000045,None,935.0932111000002,None,f,0.5880201999971177,935.5935786000045,None,,,,,,,p,001,2021_Jul_08_1534,toilet,2021.1.3,99.88872398050411,
0,0,4,-4,0.94,,,,,2,0,2,0,1,55,111,8,,,,,,,,,,,,,,,,,,,,,,,937.1947175000096,None,937.1947175000096,None,936.6943669000175,None,j,0.60291689998121,937.1947175000096,None,,,,,,,p,001,2021_Jul_08_1534,toilet,2021.1.3,99.88872398050411,
,,,,,,,,,2,0,2,0,,,,,,,,,,,,,,,,,,,,,,,,,,,,,,,,,,,,,937.8251133000012,None,space,1.5884118000103626,937.8251133000012,None,p,001,2021_Jul_08_1534,toilet,2021.1.3,99.88872398050411,
0,0,-4,4,1.03,,,,,3,0,3,0,0,0,0,4,,,,,,,,,,,,,,,,,939.4261594999989,None,space,0.5314493000041693,939.4261594999989,None,940.9672031000082,None,940.9672031000082,None,940.4668617999996,None,j,0.7023913999728393,940.9672031000082,None,,,,,,,p,001,2021_Jul_08_1534,toilet,2021.1.3,99.88872398050411,
0,0,4,-4,1.06,,,,,3,0,3,0,0,1,1,12,,,,,,,,,,,,,,,,,,,,,,,942.6883750999987,None,942.6883750999987,None,942.1880300000194,None,f,0.6131943000073079,942.6883750999987,None,,,,,,,p,001,2021_Jul_08_1534,toilet,2021.1.3,99.88872398050411,
180,0,4,-4,1.03,,,,,3,0,3,0,0,2,2,53,,,,,,,,,,,,,,,,,,,,,,,944.3095512000145,None,944.3095512000145,None,943.8091713000031,None,f,0.6399646000063512,944.3095512000145,None,,,,,,,p,001,2021_Jul_08_1534,toilet,2021.1.3,99.88872398050411,
0,0,-4,4,0.94,,,,,3,0,3,0,0,3,3,1,,,,,,,,,,,,,,,,,,,,,,,945.9505852000148,None,945.9505852000148,None,945.4502468999999,None,f,0.5829631999949925,945.9505852000148,None,,,,,,,p,001,2021_Jul_08_1534,toilet,2021.1.3,99.88872398050411,
180,180,-4,4,1.03,,,,,3,0,3,0,0,4,4,32,,,,,,,,,,,,,,,,,,,,,,,947.5416697000037,None,947.5416697000037,None,947.0413263000082,None,j,0.6239090999879409,947.5416697000037,None,,,,,,,p,001,2021_Jul_08_1534,toilet,2021.1.3,99.88872398050411,
0,180,4,-4,1.03,,,,,3,0,3,0,0,5,5,25,,,,,,,,,,,,,,,,,,,,,,,949.1827731000085,None,949.1827731000085,None,948.6824336000136,None,f,0.6470671000133734,949.1827731000085,None,,,,,,,p,001,2021_Jul_08_1534,toilet,2021.1.3,99.88872398050411,
180,180,-4,4,1.06,,,,,3,0,3,0,0,6,6,33,,,,,,,,,,,,,,,,,,,,,,,950.843981300015,None,950.843981300015,None,950.3435624999984,None,j,0.5056969000142999,950.843981300015,None,,,,,,,p,001,2021_Jul_08_1534,toilet,2021.1.3,99.88872398050411,
0,180,4,-4,1.0,,,,,3,0,3,0,0,7,7,24,,,,,,,,,,,,,,,,,,,,,,,952.3649445000046,None,952.3649445000046,None,951.8646822000155,None,f,1.176573400007328,952.3649445000046,None,,,,,,,p,001,2021_Jul_08_1534,toilet,2021.1.3,99.88872398050411,
180,180,4,-4,0.97,,,,,3,0,3,0,0,8,8,37,,,,,,,,,,,,,,,,,,,,,,,954.5464110000175,None,954.5464110000175,None,954.0460752000217,None,j,0.5790960000013001,954.5464110000175,None,,,,,,,p,001,2021_Jul_08_1534,toilet,2021.1.3,99.88872398050411,
180,180,4,-4,1.0,,,,,3,0,3,0,0,9,9,38,,,,,,,,,,,,,,,,,,,,,,,956.1274841000268,None,956.1274841000268,None,955.627144500002,None,j,0.5983082999882754,956.1274841000268,None,,,,,,,p,001,2021_Jul_08_1534,toilet,2021.1.3,99.88872398050411,
0,0,4,-4,1.0,,,,,3,0,3,0,0,10,10,10,,,,,,,,,,,,,,,,,,,,,,,957.7385765000072,None,957.7385765000072,None,957.238233400014,None,f,2.187120899994625,957.7385765000072,None,,,,,,,p,001,2021_Jul_08_1534,toilet,2021.1.3,99.88872398050411,
0,0,-4,4,0.97,,,,,3,0,3,0,0,11,11,2,,,,,,,,,,,,,,,,,,,,,,,960.9407474000182,None,960.9407474000182,None,960.4404067000141,None,f,0.8567616000073031,960.9407474000182,None,,,,,,,p,001,2021_Jul_08_1534,toilet,2021.1.3,99.88872398050411,
0,0,-4,4,1.0,,,,,3,0,3,0,0,12,12,3,,,,,,,,,,,,,,,,,,,,,,,962.8020111000224,None,962.8020111000224,None,962.3016814000148,None,j,3.9078106000088155,962.8020111000224,None,,,,,,,p,001,2021_Jul_08_1534,toilet,2021.1.3,99.88872398050411,
180,0,4,-4,1.0,,,,,3,0,3,0,0,13,13,52,,,,,,,,,,,,,,,,,,,,,,,967.7253458000196,None,967.7253458000196,None,967.2250436000177,None,j,1.240157199994428,967.7253458000196,None,,,,,,,p,001,2021_Jul_08_1534,toilet,2021.1.3,99.88872398050411,
0,0,-4,4,0.85,,,,,3,0,3,0,0,14,14,0,,,,,,,,,,,,,,,,,,,,,,,969.9668709000107,None,969.9668709000107,None,969.4665274000145,None,f,0.6626898999966215,969.9668709000107,None,,,,,,,p,001,2021_Jul_08_1534,toilet,2021.1.3,99.88872398050411,
0,180,-4,4,0.94,,,,,3,0,3,0,0,15,15,15,,,,,,,,,,,,,,,,,,,,,,,971.6479973000241,None,971.6479973000241,None,971.1476655000006,None,f,1.0136578000092413,971.6479973000241,None,,,,,,,p,001,2021_Jul_08_1534,toilet,2021.1.3,99.88872398050411,
180,180,-4,4,0.94,,,,,3,0,3,0,0,16,16,29,,,,,,,,,,,,,,,,,,,,,,,973.6794567000179,None,973.6794567000179,None,973.1791302000056,None,f,0.6460450000013225,973.6794567000179,None,,,,,,,p,001,2021_Jul_08_1534,toilet,2021.1.3,99.88872398050411,
180,180,-4,4,0.85,,,,,3,0,3,0,0,17,17,28,,,,,,,,,,,,,,,,,,,,,,,975.3305027000024,None,975.3305027000024,None,974.8301772999985,None,f,0.5630621000018436,975.3305027000024,None,,,,,,,p,001,2021_Jul_08_1534,toilet,2021.1.3,99.88872398050411,
0,0,4,-4,1.15,,,,,3,0,3,0,0,18,18,13,,,,,,,,,,,,,,,,,,,,,,,976.9015695000126,None,976.9015695000126,None,976.4012342000206,None,f,0.49594039999647066,976.9015695000126,None,,,,,,,p,001,2021_Jul_08_1534,toilet,2021.1.3,99.88872398050411,
180,0,4,-4,1.06,,,,,3,0,3,0,0,19,19,54,,,,,,,,,,,,,,,,,,,,,,,978.4025937000115,None,978.4025937000115,None,977.9022486000031,None,f,0.738989000004949,978.4025937000115,None,,,,,,,p,001,2021_Jul_08_1534,toilet,2021.1.3,99.88872398050411,
180,180,4,-4,1.15,,,,,3,0,3,0,0,20,20,41,,,,,,,,,,,,,,,,,,,,,,,980.1538662000094,None,980.1538662000094,None,979.6534369000001,None,f,0.6996947999869008,980.1538662000094,None,,,,,,,p,001,2021_Jul_08_1534,toilet,2021.1.3,99.88872398050411,
180,0,4,-4,0.94,,,,,3,0,3,0,0,21,21,50,,,,,,,,,,,,,,,,,,,,,,,981.8650067000126,None,981.8650067000126,None,981.3646786000172,None,j,0.7484677000029478,981.8650067000126,None,,,,,,,p,001,2021_Jul_08_1534,toilet,2021.1.3,99.88872398050411,
0,0,-4,4,1.15,,,,,3,0,3,0,0,22,22,6,,,,,,,,,,,,,,,,,,,,,,,983.6161141000048,None,983.6161141000048,None,983.1157802000234,None,j,0.5335556999780238,983.6161141000048,None,,,,,,,p,001,2021_Jul_08_1534,toilet,2021.1.3,99.88872398050411,
0,0,4,-4,0.97,,,,,3,0,3,0,0,23,23,9,,,,,,,,,,,,,,,,,,,,,,,985.1571643000061,None,985.1571643000061,None,984.6568284000095,None,f,0.48039719997905195,985.1571643000061,None,,,,,,,p,001,2021_Jul_08_1534,toilet,2021.1.3,99.88872398050411,
0,0,4,-4,0.94,,,,,3,0,3,0,0,24,24,8,,,,,,,,,,,,,,,,,,,,,,,986.6481782000046,None,986.6481782000046,None,986.1478384000075,None,j,0.5574675999814644,986.6481782000046,None,,,,,,,p,001,2021_Jul_08_1534,toilet,2021.1.3,99.88872398050411,
0,180,-4,4,1.15,,,,,3,0,3,0,0,25,25,20,,,,,,,,,,,,,,,,,,,,,,,988.2192411000142,None,988.2192411000142,None,987.7189709000231,None,j,0.5064167999953497,988.2192411000142,None,,,,,,,p,001,2021_Jul_08_1534,toilet,2021.1.3,99.88872398050411,
0,0,-4,4,1.06,,,,,3,0,3,0,0,26,26,5,,,,,,,,,,,,,,,,,,,,,,,989.7402754000213,None,989.7402754000213,None,989.2400134000054,None,j,0.5213460999948438,989.7402754000213,None,,,,,,,p,001,2021_Jul_08_1534,toilet,2021.1.3,99.88872398050411,
180,180,4,-4,0.94,,,,,3,0,3,0,0,27,27,36,,,,,,,,,,,,,,,,,,,,,,,991.2613035000104,None,991.2613035000104,None,990.7609686000214,None,j,0.440193000016734,991.2613035000104,None,,,,,,,p,001,2021_Jul_08_1534,toilet,2021.1.3,99.88872398050411,
0,0,4,-4,0.85,,,,,3,0,3,0,0,28,28,7,,,,,,,,,,,,,,,,,,,,,,,992.7022858000128,None,992.7022858000128,None,992.2019422000158,None,j,0.4393589000101201,992.7022858000128,None,,,,,,,p,001,2021_Jul_08_1534,toilet,2021.1.3,99.88872398050411,
180,0,-4,4,1.06,,,,,3,0,3,0,0,29,29,47,,,,,,,,,,,,,,,,,,,,,,,994.1532686999999,None,994.1532686999999,None,993.6529253000044,None,j,0.49236969999037683,994.1532686999999,None,,,,,,,p,001,2021_Jul_08_1534,toilet,2021.1.3,99.88872398050411,
180,180,-4,4,1.0,,,,,3,0,3,0,0,30,30,31,,,,,,,,,,,,,,,,,,,,,,,995.6543616999988,None,995.6543616999988,None,995.1540391000162,None,j,1.3911321999912616,995.6543616999988,None,,,,,,,p,001,2021_Jul_08_1534,toilet,2021.1.3,99.88872398050411,
180,180,4,-4,1.06,,,,,3,0,3,0,0,31,31,40,,,,,,,,,,,,,,,,,,,,,,,998.0459028000187,None,998.0459028000187,None,997.5455737000157,None,f,0.5356421000033151,998.0459028000187,None,,,,,,,p,001,2021_Jul_08_1534,toilet,2021.1.3,99.88872398050411,
180,180,-4,4,0.97,,,,,3,0,3,0,0,32,32,30,,,,,,,,,,,,,,,,,,,,,,,999.5869473000057,None,999.5869473000057,None,999.0866230000101,None,j,0.5146892999764532,999.5869473000057,None,,,,,,,p,001,2021_Jul_08_1534,toilet,2021.1.3,99.88872398050411,
0,180,-4,4,1.03,,,,,3,0,3,0,0,33,33,18,,,,,,,,,,,,,,,,,,,,,,,1001.1179881000135,None,1001.1179881000135,None,1000.6176481000148,None,f,0.5195819000073243,1001.1179881000135,None,,,,,,,p,001,2021_Jul_08_1534,toilet,2021.1.3,99.88872398050411,
0,180,4,-4,1.06,,,,,3,0,3,0,0,34,34,26,,,,,,,,,,,,,,,,,,,,,,,1002.6491091000207,None,1002.6491091000207,None,1002.1486868000065,None,f,0.5884228000068106,1002.6491091000207,None,,,,,,,p,001,2021_Jul_08_1534,toilet,2021.1.3,99.88872398050411,
0,180,4,-4,1.15,,,,,3,0,3,0,0,35,35,27,,,,,,,,,,,,,,,,,,,,,,,1004.2401608000218,None,1004.2401608000218,None,1003.7398537000117,None,f,1.0453115999989677,1004.2401608000218,None,,,,,,,p,001,2021_Jul_08_1534,toilet,2021.1.3,99.88872398050411,
180,0,-4,4,0.85,,,,,3,0,3,0,0,36,36,42,,,,,,,,,,,,,,,,,,,,,,,1006.291495500016,None,1006.291495500016,None,1005.7911613000033,None,f,0.5300900000147521,1006.291495500016,None,,,,,,,p,001,2021_Jul_08_1534,toilet,2021.1.3,99.88872398050411,
180,0,-4,4,1.03,,,,,3,0,3,0,0,37,37,46,,,,,,,,,,,,,,,,,,,,,,,1007.8325415000145,None,1007.8325415000145,None,1007.3322047000111,None,f,0.9730802999984007,1007.8325415000145,None,,,,,,,p,001,2021_Jul_08_1534,toilet,2021.1.3,99.88872398050411,
180,0,-4,4,0.97,,,,,3,0,3,0,0,38,38,44,,,,,,,,,,,,,,,,,,,,,,,1009.8239766000188,None,1009.8239766000188,None,1009.323548800021,None,f,0.5495837000198662,1009.8239766000188,None,,,,,,,p,001,2021_Jul_08_1534,toilet,2021.1.3,99.88872398050411,
180,0,-4,4,1.0,,,,,3,0,3,0,0,39,39,45,,,,,,,,,,,,,,,,,,,,,,,1011.3750265000272,None,1011.3750265000272,None,1010.8746873000055,None,f,0.9984972999955062,1011.3750265000272,None,,,,,,,p,001,2021_Jul_08_1534,toilet,2021.1.3,99.88872398050411,
0,180,-4,4,1.06,,,,,3,0,3,0,0,40,40,19,,,,,,,,,,,,,,,,,,,,,,,1013.3763016000157,None,1013.3763016000157,None,1012.8759675000038,None,j,0.7253400000045076,1013.3763016000157,None,,,,,,,p,001,2021_Jul_08_1534,toilet,2021.1.3,99.88872398050411,
180,0,4,-4,1.15,,,,,3,0,3,0,0,41,41,55,,,,,,,,,,,,,,,,,,,,,,,1015.1275012000115,None,1015.1275012000115,None,1014.6271505000186,None,f,0.4781331999984104,1015.1275012000115,None,,,,,,,p,001,2021_Jul_08_1534,toilet,2021.1.3,99.88872398050411,
0,180,4,-4,0.85,,,,,3,0,3,0,0,42,42,21,,,,,,,,,,,,,,,,,,,,,,,1016.6184954000055,None,1016.6184954000055,None,1016.1181573000213,None,j,0.5231702999735717,1016.6184954000055,None,,,,,,,p,001,2021_Jul_08_1534,toilet,2021.1.3,99.88872398050411,
180,180,4,-4,1.03,,,,,3,0,3,0,0,43,43,39,,,,,,,,,,,,,,,,,,,,,,,1018.1596351000189,None,1018.1596351000189,None,1017.6592889000021,None,f,0.5978383000183385,1018.1596351000189,None,,,,,,,p,001,2021_Jul_08_1534,toilet,2021.1.3,99.88872398050411,
180,0,-4,4,0.94,,,,,3,0,3,0,0,44,44,43,,,,,,,,,,,,,,,,,,,,,,,1019.7706353000249,None,1019.7706353000249,None,1019.2702961000032,None,f,0.5068702999851666,1019.7706353000249,None,,,,,,,p,001,2021_Jul_08_1534,toilet,2021.1.3,99.88872398050411,
180,0,4,-4,0.85,,,,,3,0,3,0,0,45,45,49,,,,,,,,,,,,,,,,,,,,,,,1021.2816731000203,None,1021.2816731000203,None,1020.7813220000244,None,j,0.45188510001753457,1021.2816731000203,None,,,,,,,p,001,2021_Jul_08_1534,toilet,2021.1.3,99.88872398050411,
0,180,-4,4,0.97,,,,,3,0,3,0,0,46,46,16,,,,,,,,,,,,,,,,,,,,,,,1022.7426467000041,None,1022.7426467000041,None,1022.2423085000191,None,f,0.638909600005718,1022.7426467000041,None,,,,,,,p,001,2021_Jul_08_1534,toilet,2021.1.3,99.88872398050411,
0,180,4,-4,0.97,,,,,3,0,3,0,0,47,47,23,,,,,,,,,,,,,,,,,,,,,,,1024.3938429000264,None,1024.3938429000264,None,1023.8934260000242,None,j,1.451741700002458,1024.3938429000264,None,,,,,,,p,001,2021_Jul_08_1534,toilet,2021.1.3,99.88872398050411,
0,0,4,-4,1.03,,,,,3,0,3,0,0,48,48,11,,,,,,,,,,,,,,,,,,,,,,,1026.8554675000196,None,1026.8554675000196,None,1026.3550982000015,None,f,0.718036000005668,1026.8554675000196,None,,,,,,,p,001,2021_Jul_08_1534,toilet,2021.1.3,99.88872398050411,
0,180,-4,4,0.85,,,,,3,0,3,0,0,49,49,14,,,,,,,,,,,,,,,,,,,,,,,1028.5766003000026,None,1028.5766003000026,None,1028.076269800018,None,f,0.5168688999838196,1028.5766003000026,None,,,,,,,p,001,2021_Jul_08_1534,toilet,2021.1.3,99.88872398050411,
180,0,4,-4,0.97,,,,,3,0,3,0,0,50,50,51,,,,,,,,,,,,,,,,,,,,,,,1030.0976360000204,None,1030.0976360000204,None,1029.5972954000172,None,j,1.3959815000125673,1030.0976360000204,None,,,,,,,p,001,2021_Jul_08_1534,toilet,2021.1.3,99.88872398050411,
180,180,4,-4,0.85,,,,,3,0,3,0,0,51,51,35,,,,,,,,,,,,,,,,,,,,,,,1032.5193664000253,None,1032.5193664000253,None,1032.0189365000115,None,j,0.5581804999965243,1032.5193664000253,None,,,,,,,p,001,2021_Jul_08_1534,toilet,2021.1.3,99.88872398050411,
0,180,-4,4,1.0,,,,,3,0,3,0,0,52,52,17,,,,,,,,,,,,,,,,,,,,,,,1034.0903431000188,None,1034.0903431000188,None,1033.5900410000177,None,f,0.5551340999954846,1034.0903431000188,None,,,,,,,p,001,2021_Jul_08_1534,toilet,2021.1.3,99.88872398050411,
0,180,4,-4,0.94,,,,,3,0,3,0,0,53,53,22,,,,,,,,,,,,,,,,,,,,,,,1035.6513992000255,None,1035.6513992000255,None,1035.1510606000083,None,j,0.5780739999900106,1035.6513992000255,None,,,,,,,p,001,2021_Jul_08_1534,toilet,2021.1.3,99.88872398050411,
180,0,-4,4,1.15,,,,,3,0,3,0,0,54,54,48,,,,,,,,,,,,,,,,,,,,,,,1037.2324733000132,None,1037.2324733000132,None,1036.732138100022,None,j,0.48516390001168475,1037.2324733000132,None,,,,,,,p,001,2021_Jul_08_1534,toilet,2021.1.3,99.88872398050411,
180,180,-4,4,1.15,,,,,3,0,3,0,0,55,55,34,,,,,,,,,,,,,,,,,,,,,,,1038.7435736000189,None,1038.7435736000189,None,1038.243161600025,None,j,0.4459093000041321,1038.7435736000189,None,,,,,,,p,001,2021_Jul_08_1534,toilet,2021.1.3,99.88872398050411,
180,0,-4,4,0.85,,,,,3,0,3,0,1,0,56,42,,,,,,,,,,,,,,,,,,,,,,,1040.1945557,None,1040.1945557,None,1039.6942165000073,None,f,0.4830084999848623,1040.1945557,None,,,,,,,p,001,2021_Jul_08_1534,toilet,2021.1.3,99.88872398050411,
180,0,4,-4,1.03,,,,,3,0,3,0,1,1,57,53,,,,,,,,,,,,,,,,,,,,,,,1041.6854963000224,None,1041.6854963000224,None,1041.185164000024,None,f,0.6239988000015728,1041.6854963000224,None,,,,,,,p,001,2021_Jul_08_1534,toilet,2021.1.3,99.88872398050411,
0,0,4,-4,1.06,,,,,3,0,3,0,1,2,58,12,,,,,,,,,,,,,,,,,,,,,,,1043.3165965000226,None,1043.3165965000226,None,1042.816258100007,None,f,0.545031099987682,1043.3165965000226,None,,,,,,,p,001,2021_Jul_08_1534,toilet,2021.1.3,99.88872398050411,
0,0,4,-4,1.0,,,,,3,0,3,0,1,3,59,10,,,,,,,,,,,,,,,,,,,,,,,1044.8776524999994,None,1044.8776524999994,None,1044.3773144000152,None,f,1.1118249999999534,1044.8776524999994,None,,,,,,,p,001,2021_Jul_08_1534,toilet,2021.1.3,99.88872398050411,
180,180,-4,4,1.0,,,,,3,0,3,0,1,4,60,31,,,,,,,,,,,,,,,,,,,,,,,1046.9891634000232,None,1046.9891634000232,None,1046.488814500015,None,f,1.016444800014142,1046.9891634000232,None,,,,,,,p,001,2021_Jul_08_1534,toilet,2021.1.3,99.88872398050411,
