ori_st,ori_pr,xpos_st,xpos_pr,size,trials_3.thisRepN,trials_3.thisTrialN,trials_3.thisN,trials_3.thisIndex,trials_2.thisRepN,trials_2.thisTrialN,trials_2.thisN,trials_2.thisIndex,trials.thisRepN,trials.thisTrialN,trials.thisN,trials.thisIndex,wel_pra.started,wel_pra.stopped,resp_wel.keys,resp_wel.rt,resp_wel.started,resp_wel.stopped,standard_pra.started,standard_pra.stopped,prove_pra.started,prove_pra.stopped,fixation.started,fixation.stopped,resp_pra.keys,resp_pra.rt,resp_pra.started,resp_pra.stopped,instr.started,instr.stopped,key_resp_2.keys,key_resp_2.rt,key_resp_2.started,key_resp_2.stopped,standard.started,standard.stopped,probe.started,probe.stopped,text.started,text.stopped,resp.keys,resp.rt,resp.started,resp.stopped,text_2.started,text_2.stopped,key_resp.keys,key_resp.rt,key_resp.started,key_resp.stopped,text_3.started,text_3.stopped,key_resp_3.keys,key_resp_3.rt,key_resp_3.started,key_resp_3.stopped,participant,session,date,expName,psychopyVersion,frameRate,
,,,,,,,,,,,,,,,,,13.351006899960339,None,space,118.08176590013318,13.351006899960339,None,,,,,,,,,,,,,,,,,,,,,,,,,,,,,,,,,,,,,,,j,001,2021_Jul_05_1503,toilet,2021.1.3,99.94992519488179,
180,0,-4,4,0.85,0,0,0,12,,,,,,,,,,,,,,,132.48137619998306,None,132.48137619998306,None,131.98113139998168,None,f,3.49510410008952,132.48137619998306,None,,,,,,,,,,,,,,,,,,,,,,,,,,,,,j,001,2021_Jul_05_1503,toilet,2021.1.3,99.94992519488179,
0,180,-4,4,0.85,0,1,1,4,,,,,,,,,,,,,,,137.0044360999018,None,137.0044360999018,None,136.5040986998938,None,j,3.659953099908307,137.0044360999018,None,,,,,,,,,,,,,,,,,,,,,,,,,,,,,j,001,2021_Jul_05_1503,toilet,2021.1.3,99.94992519488179,
180,180,-4,4,0.85,0,2,2,8,,,,,,,,,,,,,,,141.6676024000626,None,141.6676024000626,None,141.16726329992525,None,f,0.7729118000715971,141.6676024000626,None,,,,,,,,,,,,,,,,,,,,,,,,,,,,,j,001,2021_Jul_05_1503,toilet,2021.1.3,99.94992519488179,
180,180,-4,4,1.15,0,3,3,10,,,,,,,,,,,,,,,143.44880879996344,None,143.44880879996344,None,142.94846790004522,None,j,0.5279456998687238,143.44880879996344,None,,,,,,,,,,,,,,,,,,,,,,,,,,,,,j,001,2021_Jul_05_1503,toilet,2021.1.3,99.94992519488179,
0,0,-4,4,1.15,0,4,4,2,,,,,,,,,,,,,,,144.9998651999049,None,144.9998651999049,None,144.49952499987558,None,j,0.5766819000709802,144.9998651999049,None,,,,,,,,,,,,,,,,,,,,,,,,,,,,,j,001,2021_Jul_05_1503,toilet,2021.1.3,99.94992519488179,
180,180,-4,4,0.85,0,5,5,9,,,,,,,,,,,,,,,146.60094599984586,None,146.60094599984586,None,146.10070049995556,None,f,0.52754220017232,146.60094599984586,None,,,,,,,,,,,,,,,,,,,,,,,,,,,,,j,001,2021_Jul_05_1503,toilet,2021.1.3,99.94992519488179,
0,180,4,-4,1.15,0,6,6,7,,,,,,,,,,,,,,,148.14200229989365,None,148.14200229989365,None,147.6416529000271,None,f,0.6023357999511063,148.14200229989365,None,,,,,,,,,,,,,,,,,,,,,,,,,,,,,j,001,2021_Jul_05_1503,toilet,2021.1.3,99.94992519488179,
0,0,4,-4,1.15,0,7,7,3,,,,,,,,,,,,,,,149.75308639998548,None,149.75308639998548,None,149.25274539995007,None,f,1.247298900038004,149.75308639998548,None,,,,,,,,,,,,,,,,,,,,,,,,,,,,,j,001,2021_Jul_05_1503,toilet,2021.1.3,99.94992519488179,
0,180,-4,4,1.15,0,8,8,6,,,,,,,,,,,,,,,152.00464349985123,None,152.00464349985123,None,151.50427270005457,None,j,0.579706700053066,152.00464349985123,None,,,,,,,,,,,,,,,,,,,,,,,,,,,,,j,001,2021_Jul_05_1503,toilet,2021.1.3,99.94992519488179,
180,180,-4,4,1.15,0,9,9,11,,,,,,,,,,,,,,,153.5857024998404,None,153.5857024998404,None,153.08544269995764,None,j,0.48674870003014803,153.5857024998404,None,,,,,,,,,,,,,,,,,,,,,,,,,,,,,j,001,2021_Jul_05_1503,toilet,2021.1.3,99.94992519488179,
180,0,-4,4,1.15,0,10,10,15,,,,,,,,,,,,,,,155.08670319989324,None,155.08670319989324,None,154.58644189988263,None,j,0.44185549998655915,155.08670319989324,None,,,,,,,,,,,,,,,,,,,,,,,,,,,,,j,001,2021_Jul_05_1503,toilet,2021.1.3,99.94992519488179,
0,0,-4,4,0.85,0,11,11,0,,,,,,,,,,,,,,,156.52768129995093,None,156.52768129995093,None,156.0273438000586,None,f,0.6806973998900503,156.52768129995093,None,,,,,,,,,,,,,,,,,,,,,,,,,,,,,j,001,2021_Jul_05_1503,toilet,2021.1.3,99.94992519488179,
180,0,-4,4,0.85,0,12,12,13,,,,,,,,,,,,,,,158.20881569990888,None,158.20881569990888,None,157.70848289993592,None,f,0.6795332001056522,158.20881569990888,None,,,,,,,,,,,,,,,,,,,,,,,,,,,,,j,001,2021_Jul_05_1503,toilet,2021.1.3,99.94992519488179,
0,0,4,-4,0.85,0,13,13,1,,,,,,,,,,,,,,,159.88996020006016,None,159.88996020006016,None,159.38962249993347,None,j,0.47039869986474514,159.88996020006016,None,,,,,,,,,,,,,,,,,,,,,,,,,,,,,j,001,2021_Jul_05_1503,toilet,2021.1.3,99.94992519488179,
180,0,-4,4,1.15,0,14,14,14,,,,,,,,,,,,,,,161.36105969990604,None,161.36105969990604,None,160.86069049988873,None,j,0.4393796999938786,161.36105969990604,None,,,,,,,,,,,,,,,,,,,,,,,,,,,,,j,001,2021_Jul_05_1503,toilet,2021.1.3,99.94992519488179,
0,180,4,-4,0.85,0,15,15,5,,,,,,,,,,,,,,,162.81196970003657,None,162.81196970003657,None,162.31160550005734,None,j,0.5244273000862449,162.81196970003657,None,,,,,,,,,,,,,,,,,,,,,,,,,,,,,j,001,2021_Jul_05_1503,toilet,2021.1.3,99.94992519488179,
180,0,4,-4,1.15,,,,,0,0,0,0,0,0,0,55,,,,,,,,,,,,,,,,,163.35230879997835,None,space,60.89600890013389,163.35230879997835,None,225.26428569993004,None,225.26428569993004,None,224.76393819996156,None,f,0.6161660999059677,225.26428569993004,None,,,,,,,,,,,,,j,001,2021_Jul_05_1503,toilet,2021.1.3,99.94992519488179,
0,180,4,-4,0.94,,,,,0,0,0,0,0,1,1,22,,,,,,,,,,,,,,,,,,,,,,,226.8953805998899,None,226.8953805998899,None,226.39504159986973,None,j,0.5050604999996722,226.8953805998899,None,,,,,,,,,,,,,j,001,2021_Jul_05_1503,toilet,2021.1.3,99.94992519488179,
0,0,-4,4,0.94,,,,,0,0,0,0,0,2,2,1,,,,,,,,,,,,,,,,,,,,,,,228.41649099998176,None,228.41649099998176,None,227.91607469995506,None,j,0.5198657000437379,228.41649099998176,None,,,,,,,,,,,,,j,001,2021_Jul_05_1503,toilet,2021.1.3,99.94992519488179,
0,0,4,-4,0.85,,,,,0,0,0,0,0,3,3,7,,,,,,,,,,,,,,,,,,,,,,,229.9374436000362,None,229.9374436000362,None,229.43713789992034,None,j,0.40691970009356737,229.9374436000362,None,,,,,,,,,,,,,j,001,2021_Jul_05_1503,toilet,2021.1.3,99.94992519488179,
0,0,4,-4,1.06,,,,,0,0,0,0,0,4,4,12,,,,,,,,,,,,,,,,,,,,,,,231.34840300003998,None,231.34840300003998,None,230.84807259985246,None,f,1.1399669998791069,231.34840300003998,None,,,,,,,,,,,,,j,001,2021_Jul_05_1503,toilet,2021.1.3,99.94992519488179,
180,180,-4,4,0.94,,,,,0,0,0,0,0,5,5,29,,,,,,,,,,,,,,,,,,,,,,,233.49985899985768,None,233.49985899985768,None,232.99951989995316,None,j,1.5645963000133634,233.49985899985768,None,,,,,,,,,,,,,j,001,2021_Jul_05_1503,toilet,2021.1.3,99.94992519488179,
0,0,4,-4,1.15,,,,,0,0,0,0,0,6,6,13,,,,,,,,,,,,,,,,,,,,,,,236.08162559987977,None,236.08162559987977,None,235.58133980003186,None,f,0.9507109001278877,236.08162559987977,None,,,,,,,,,,,,,j,001,2021_Jul_05_1503,toilet,2021.1.3,99.94992519488179,
180,180,4,-4,1.15,,,,,0,0,0,0,0,7,7,41,,,,,,,,,,,,,,,,,,,,,,,238.03294249996543,None,238.03294249996543,None,237.5325927999802,None,f,0.7276395000517368,238.03294249996543,None,,,,,,,,,,,,,j,001,2021_Jul_05_1503,toilet,2021.1.3,99.94992519488179,
180,180,-4,4,1.06,,,,,0,0,0,0,0,8,8,33,,,,,,,,,,,,,,,,,,,,,,,239.77411399991252,None,239.77411399991252,None,239.2737732999958,None,j,0.3943081002216786,239.77411399991252,None,,,,,,,,,,,,,j,001,2021_Jul_05_1503,toilet,2021.1.3,99.94992519488179,
180,0,4,-4,0.97,,,,,0,0,0,0,0,9,9,51,,,,,,,,,,,,,,,,,,,,,,,241.18516250001267,None,241.18516250001267,None,240.68473199987784,None,j,0.7752499999478459,241.18516250001267,None,,,,,,,,,,,,,j,001,2021_Jul_05_1503,toilet,2021.1.3,99.94992519488179,
180,180,-4,4,1.03,,,,,0,0,0,0,0,10,10,32,,,,,,,,,,,,,,,,,,,,,,,242.9763789998833,None,242.9763789998833,None,242.47604330000468,None,j,0.7599448000546545,242.9763789998833,None,,,,,,,,,,,,,j,001,2021_Jul_05_1503,toilet,2021.1.3,99.94992519488179,
0,180,4,-4,1.0,,,,,0,0,0,0,0,11,11,24,,,,,,,,,,,,,,,,,,,,,,,244.73747809999622,None,244.73747809999622,None,244.23713620007038,None,f,0.6787893997970968,244.73747809999622,None,,,,,,,,,,,,,j,001,2021_Jul_05_1503,toilet,2021.1.3,99.94992519488179,
0,0,-4,4,1.15,,,,,0,0,0,0,0,12,12,6,,,,,,,,,,,,,,,,,,,,,,,246.41861589998007,None,246.41861589998007,None,245.91827569995075,None,j,0.4538466001395136,246.41861589998007,None,,,,,,,,,,,,,j,001,2021_Jul_05_1503,toilet,2021.1.3,99.94992519488179,
0,0,4,-4,1.0,,,,,0,0,0,0,0,13,13,10,,,,,,,,,,,,,,,,,,,,,,,247.89962000004016,None,247.89962000004016,None,247.39928989997134,None,j,0.4927970999851823,247.89962000004016,None,,,,,,,,,,,,,j,001,2021_Jul_05_1503,toilet,2021.1.3,99.94992519488179,
180,180,4,-4,0.94,,,,,0,0,0,0,0,14,14,36,,,,,,,,,,,,,,,,,,,,,,,249.41072529996745,None,249.41072529996745,None,248.91030950006098,None,j,0.5016886999364942,249.41072529996745,None,,,,,,,,,,,,,j,001,2021_Jul_05_1503,toilet,2021.1.3,99.94992519488179,
0,180,4,-4,0.97,,,,,0,0,0,0,0,15,15,23,,,,,,,,,,,,,,,,,,,,,,,250.92167479987256,None,250.92167479987256,None,250.4214182998985,None,f,0.5745388998184353,250.92167479987256,None,,,,,,,,,,,,,j,001,2021_Jul_05_1503,toilet,2021.1.3,99.94992519488179,
0,0,4,-4,0.97,,,,,0,0,0,0,0,16,16,9,,,,,,,,,,,,,,,,,,,,,,,252.50274079991505,None,252.50274079991505,None,252.0024115999695,None,j,0.5295563999097794,252.50274079991505,None,,,,,,,,,,,,,j,001,2021_Jul_05_1503,toilet,2021.1.3,99.94992519488179,
180,0,-4,4,1.15,,,,,0,0,0,0,0,17,17,48,,,,,,,,,,,,,,,,,,,,,,,254.03385480004363,None,254.03385480004363,None,253.53347819996998,None,j,0.886586899869144,254.03385480004363,None,,,,,,,,,,,,,j,001,2021_Jul_05_1503,toilet,2021.1.3,99.94992519488179,
180,0,-4,4,1.06,,,,,0,0,0,0,0,18,18,47,,,,,,,,,,,,,,,,,,,,,,,255.94507659994997,None,255.94507659994997,None,255.44476750004105,None,j,0.8312971000559628,255.94507659994997,None,,,,,,,,,,,,,j,001,2021_Jul_05_1503,toilet,2021.1.3,99.94992519488179,
180,0,4,-4,0.85,,,,,0,0,0,0,0,19,19,49,,,,,,,,,,,,,,,,,,,,,,,257.78641399997286,None,257.78641399997286,None,257.28606499987654,None,j,0.8778771001379937,257.78641399997286,None,,,,,,,,,,,,,j,001,2021_Jul_05_1503,toilet,2021.1.3,99.94992519488179,
0,180,4,-4,1.03,,,,,0,0,0,0,0,20,20,25,,,,,,,,,,,,,,,,,,,,,,,259.66761619993486,None,259.66761619993486,None,259.16726249991916,None,f,0.5646258001215756,259.66761619993486,None,,,,,,,,,,,,,j,001,2021_Jul_05_1503,toilet,2021.1.3,99.94992519488179,
180,180,-4,4,0.85,,,,,0,0,0,0,0,21,21,28,,,,,,,,,,,,,,,,,,,,,,,261.2386628999375,None,261.2386628999375,None,260.7383208000101,None,f,0.5937501001171768,261.2386628999375,None,,,,,,,,,,,,,j,001,2021_Jul_05_1503,toilet,2021.1.3,99.94992519488179,
0,180,-4,4,1.03,,,,,0,0,0,0,0,22,22,18,,,,,,,,,,,,,,,,,,,,,,,262.8597625999246,None,262.8597625999246,None,262.3594219998922,None,j,0.7164392999839038,262.8597625999246,None,,,,,,,,,,,,,j,001,2021_Jul_05_1503,toilet,2021.1.3,99.94992519488179,
0,0,-4,4,0.97,,,,,0,0,0,0,0,23,23,2,,,,,,,,,,,,,,,,,,,,,,,264.59097729995847,None,264.59097729995847,None,264.0906596998684,None,j,1.1452685999684036,264.59097729995847,None,,,,,,,,,,,,,j,001,2021_Jul_05_1503,toilet,2021.1.3,99.94992519488179,
0,0,-4,4,1.0,,,,,0,0,0,0,0,24,24,3,,,,,,,,,,,,,,,,,,,,,,,266.74240190000273,None,266.74240190000273,None,266.2420528999064,None,j,0.5139185998123139,266.74240190000273,None,,,,,,,,,,,,,j,001,2021_Jul_05_1503,toilet,2021.1.3,99.94992519488179,
180,180,-4,4,0.97,,,,,0,0,0,0,0,25,25,30,,,,,,,,,,,,,,,,,,,,,,,268.26342329988256,None,268.26342329988256,None,267.76308599999174,None,j,1.008886099793017,268.26342329988256,None,,,,,,,,,,,,,j,001,2021_Jul_05_1503,toilet,2021.1.3,99.94992519488179,
0,180,4,-4,1.15,,,,,0,0,0,0,0,26,26,27,,,,,,,,,,,,,,,,,,,,,,,270.2847909000702,None,270.2847909000702,None,269.78445270005614,None,f,0.4114393999334425,270.2847909000702,None,,,,,,,,,,,,,j,001,2021_Jul_05_1503,toilet,2021.1.3,99.94992519488179,
0,0,4,-4,0.94,,,,,0,0,0,0,0,27,27,8,,,,,,,,,,,,,,,,,,,,,,,271.69582669995725,None,271.69582669995725,None,271.1954159999732,None,j,0.4564987001940608,271.69582669995725,None,,,,,,,,,,,,,j,001,2021_Jul_05_1503,toilet,2021.1.3,99.94992519488179,
0,0,-4,4,1.06,,,,,0,0,0,0,0,28,28,5,,,,,,,,,,,,,,,,,,,,,,,273.1667515998706,None,273.1667515998706,None,272.6664485000074,None,j,0.6974925000686198,273.1667515998706,None,,,,,,,,,,,,,j,001,2021_Jul_05_1503,toilet,2021.1.3,99.94992519488179,
180,180,4,-4,0.85,,,,,0,0,0,0,0,29,29,35,,,,,,,,,,,,,,,,,,,,,,,274.86789959995076,None,274.86789959995076,None,274.36756310006604,None,j,0.9965246999636292,274.86789959995076,None,,,,,,,,,,,,,j,001,2021_Jul_05_1503,toilet,2021.1.3,99.94992519488179,
180,180,4,-4,1.06,,,,,0,0,0,0,0,30,30,40,,,,,,,,,,,,,,,,,,,,,,,276.87926259986125,None,276.87926259986125,None,276.3789393999614,None,f,1.1131504999939352,276.87926259986125,None,,,,,,,,,,,,,j,001,2021_Jul_05_1503,toilet,2021.1.3,99.94992519488179,
180,0,-4,4,1.03,,,,,0,0,0,0,0,31,31,46,,,,,,,,,,,,,,,,,,,,,,,279.010798699921,None,279.010798699921,None,278.5104048999492,None,f,1.4134182999841869,279.010798699921,None,,,,,,,,,,,,,j,001,2021_Jul_05_1503,toilet,2021.1.3,99.94992519488179,
180,180,-4,4,1.0,,,,,0,0,0,0,0,32,32,31,,,,,,,,,,,,,,,,,,,,,,,281.43235330004245,None,281.43235330004245,None,280.9320084999781,None,j,0.5118742000777274,281.43235330004245,None,,,,,,,,,,,,,j,001,2021_Jul_05_1503,toilet,2021.1.3,99.94992519488179,
180,0,-4,4,0.97,,,,,0,0,0,0,0,33,33,44,,,,,,,,,,,,,,,,,,,,,,,282.9534116999712,None,282.9534116999712,None,282.45304129994474,None,f,0.5749827998224646,282.9534116999712,None,,,,,,,,,,,,,j,001,2021_Jul_05_1503,toilet,2021.1.3,99.94992519488179,
0,180,-4,4,1.15,,,,,0,0,0,0,0,34,34,20,,,,,,,,,,,,,,,,,,,,,,,284.5544634000398,None,284.5544634000398,None,284.05414250004105,None,j,0.44576369994319975,284.5544634000398,None,,,,,,,,,,,,,j,001,2021_Jul_05_1503,toilet,2021.1.3,99.94992519488179,
0,0,4,-4,1.03,,,,,0,0,0,0,0,35,35,11,,,,,,,,,,,,,,,,,,,,,,,286.005485399859,None,286.005485399859,None,285.5051078000106,None,f,1.1707077999599278,286.005485399859,None,,,,,,,,,,,,,j,001,2021_Jul_05_1503,toilet,2021.1.3,99.94992519488179,
0,0,-4,4,1.03,,,,,0,0,0,0,0,36,36,4,,,,,,,,,,,,,,,,,,,,,,,288.1769210000057,None,288.1769210000057,None,287.6765892999247,None,j,0.7913885000161827,288.1769210000057,None,,,,,,,,,,,,,j,001,2021_Jul_05_1503,toilet,2021.1.3,99.94992519488179,
180,0,-4,4,0.94,,,,,0,0,0,0,0,37,37,43,,,,,,,,,,,,,,,,,,,,,,,289.9681330998428,None,289.9681330998428,None,289.46779719996266,None,f,1.9921999999787658,289.9681330998428,None,,,,,,,,,,,,,j,001,2021_Jul_05_1503,toilet,2021.1.3,99.94992519488179,
180,180,4,-4,1.0,,,,,0,0,0,0,0,38,38,38,,,,,,,,,,,,,,,,,,,,,,,292.9701677998528,None,292.9701677998528,None,292.4698512998875,None,f,0.7501477999612689,292.9701677998528,None,,,,,,,,,,,,,j,001,2021_Jul_05_1503,toilet,2021.1.3,99.94992519488179,
0,180,-4,4,0.94,,,,,0,0,0,0,0,39,39,15,,,,,,,,,,,,,,,,,,,,,,,294.73145309998654,None,294.73145309998654,None,294.2311084999237,None,f,0.7807500001508743,294.73145309998654,None,,,,,,,,,,,,,j,001,2021_Jul_05_1503,toilet,2021.1.3,99.94992519488179,
0,180,4,-4,0.85,,,,,0,0,0,0,0,40,40,21,,,,,,,,,,,,,,,,,,,,,,,296.51256780000404,None,296.51256780000404,None,296.0122320000082,None,j,0.4396351999603212,296.51256780000404,None,,,,,,,,,,,,,j,001,2021_Jul_05_1503,toilet,2021.1.3,99.94992519488179,
0,0,-4,4,0.85,,,,,0,0,0,0,0,41,41,0,,,,,,,,,,,,,,,,,,,,,,,297.95354690006934,None,297.95354690006934,None,297.45320790004916,None,f,0.5027769999578595,297.95354690006934,None,,,,,,,,,,,,,j,001,2021_Jul_05_1503,toilet,2021.1.3,99.94992519488179,
180,0,4,-4,1.0,,,,,0,0,0,0,0,42,42,52,,,,,,,,,,,,,,,,,,,,,,,299.48458359995857,None,299.48458359995857,None,298.9842465999536,None,f,0.6677693999372423,299.48458359995857,None,,,,,,,,,,,,,j,001,2021_Jul_05_1503,toilet,2021.1.3,99.94992519488179,
180,0,-4,4,1.0,,,,,0,0,0,0,0,43,43,45,,,,,,,,,,,,,,,,,,,,,,,301.1658184998669,None,301.1658184998669,None,300.6653855999466,None,f,1.2905429999809712,301.1658184998669,None,,,,,,,,,,,,,j,001,2021_Jul_05_1503,toilet,2021.1.3,99.94992519488179,
180,0,4,-4,1.03,,,,,0,0,0,0,0,44,44,53,,,,,,,,,,,,,,,,,,,,,,,303.45727579994127,None,303.45727579994127,None,302.95693510002457,None,f,0.6629156998824328,303.45727579994127,None,,,,,,,,,,,,,j,001,2021_Jul_05_1503,toilet,2021.1.3,99.94992519488179,
180,0,4,-4,1.06,,,,,0,0,0,0,0,45,45,54,,,,,,,,,,,,,,,,,,,,,,,305.1284105000086,None,305.1284105000086,None,304.62806660006754,None,j,0.4797978999558836,305.1284105000086,None,,,,,,,,,,,,,j,001,2021_Jul_05_1503,toilet,2021.1.3,99.94992519488179,
0,180,-4,4,0.97,,,,,0,0,0,0,0,46,46,16,,,,,,,,,,,,,,,,,,,,,,,306.61945279990323,None,306.61945279990323,None,306.1190770000685,None,f,0.5247088999021798,306.61945279990323,None,,,,,,,,,,,,,j,001,2021_Jul_05_1503,toilet,2021.1.3,99.94992519488179,
180,180,4,-4,0.97,,,,,0,0,0,0,0,47,47,37,,,,,,,,,,,,,,,,,,,,,,,308.1505402000621,None,308.1505402000621,None,307.6501227999106,None,j,0.513711100211367,308.1505402000621,None,,,,,,,,,,,,,j,001,2021_Jul_05_1503,toilet,2021.1.3,99.94992519488179,
180,180,-4,4,1.15,,,,,0,0,0,0,0,48,48,34,,,,,,,,,,,,,,,,,,,,,,,309.68151040002704,None,309.68151040002704,None,309.181246599881,None,j,0.9186780999880284,309.68151040002704,None,,,,,,,,,,,,,j,001,2021_Jul_05_1503,toilet,2021.1.3,99.94992519488179,
180,0,-4,4,0.85,,,,,0,0,0,0,0,49,49,42,,,,,,,,,,,,,,,,,,,,,,,311.60280009987764,None,311.60280009987764,None,311.10246289987117,None,f,0.6455800000112504,311.60280009987764,None,,,,,,,,,,,,,j,001,2021_Jul_05_1503,toilet,2021.1.3,99.94992519488179,
0,180,4,-4,1.06,,,,,0,0,0,0,0,50,50,26,,,,,,,,,,,,,,,,,,,,,,,313.27394629991613,None,313.27394629991613,None,312.7735939999111,None,f,0.8623694002162665,313.27394629991613,None,,,,,,,,,,,,,j,001,2021_Jul_05_1503,toilet,2021.1.3,99.94992519488179,
180,180,4,-4,1.03,,,,,0,0,0,0,0,51,51,39,,,,,,,,,,,,,,,,,,,,,,,315.16521220002323,None,315.16521220002323,None,314.66488489997573,None,f,1.002957500051707,315.16521220002323,None,,,,,,,,,,,,,j,001,2021_Jul_05_1503,toilet,2021.1.3,99.94992519488179,
180,0,4,-4,0.94,,,,,0,0,0,0,0,52,52,50,,,,,,,,,,,,,,,,,,,,,,,317.17658079997636,None,317.17658079997636,None,316.67633659997955,None,j,0.5276097999885678,317.17658079997636,None,,,,,,,,,,,,,j,001,2021_Jul_05_1503,toilet,2021.1.3,99.94992519488179,
0,180,-4,4,1.0,,,,,0,0,0,0,0,53,53,17,,,,,,,,,,,,,,,,,,,,,,,318.70761299994774,None,318.70761299994774,None,318.207277999958,None,f,0.7887146999128163,318.70761299994774,None,,,,,,,,,,,,,j,001,2021_Jul_05_1503,toilet,2021.1.3,99.94992519488179,
0,180,-4,4,0.85,,,,,0,0,0,0,0,54,54,14,,,,,,,,,,,,,,,,,,,,,,,320.5088287999388,None,320.5088287999388,None,320.0084929000586,None,f,0.5075294999405742,320.5088287999388,None,,,,,,,,,,,,,j,001,2021_Jul_05_1503,toilet,2021.1.3,99.94992519488179,
0,180,-4,4,1.06,,,,,0,0,0,0,0,55,55,19,,,,,,,,,,,,,,,,,,,,,,,322.0298659999389,None,322.0298659999389,None,321.5295257999096,None,j,0.4904058000538498,322.0298659999389,None,,,,,,,,,,,,,j,001,2021_Jul_05_1503,toilet,2021.1.3,99.94992519488179,
180,0,-4,4,0.85,,,,,0,0,0,0,1,0,56,42,,,,,,,,,,,,,,,,,,,,,,,323.53096859995276,None,323.53096859995276,None,323.03063210006803,None,f,0.46135670016519725,323.53096859995276,None,,,,,,,,,,,,,j,001,2021_Jul_05_1503,toilet,2021.1.3,99.94992519488179,
180,180,-4,4,1.15,,,,,0,0,0,0,1,1,57,34,,,,,,,,,,,,,,,,,,,,,,,325.0018790999893,None,325.0018790999893,None,324.5015593999997,None,j,0.5902961001265794,325.0018790999893,None,,,,,,,,,,,,,j,001,2021_Jul_05_1503,toilet,2021.1.3,99.94992519488179,
180,180,4,-4,1.15,,,,,0,0,0,0,1,2,58,41,,,,,,,,,,,,,,,,,,,,,,,326.59295399999246,None,326.59295399999246,None,326.09261539997533,None,f,0.5192322998773307,326.59295399999246,None,,,,,,,,,,,,,j,001,2021_Jul_05_1503,toilet,2021.1.3,99.94992519488179,
0,0,-4,4,1.03,,,,,0,0,0,0,1,3,59,4,,,,,,,,,,,,,,,,,,,,,,,328.11398689984344,None,328.11398689984344,None,327.6136451999191,None,j,0.7742538000456989,328.11398689984344,None,,,,,,,,,,,,,j,001,2021_Jul_05_1503,toilet,2021.1.3,99.94992519488179,
180,180,-4,4,1.06,,,,,0,0,0,0,1,4,60,33,,,,,,,,,,,,,,,,,,,,,,,329.8952891000081,None,329.8952891000081,None,329.39485529996455,None,j,0.5288716999348253,329.8952891000081,None,,,,,,,,,,,,,j,001,2021_Jul_05_1503,toilet,2021.1.3,99.94992519488179,
180,0,4,-4,1.06,,,,,0,0,0,0,1,5,61,54,,,,,,,,,,,,,,,,,,,,,,,331.4263321000617,None,331.4263321000617,None,330.9258445999585,None,f,0.45384320011362433,331.4263321000617,None,,,,,,,,,,,,,j,001,2021_Jul_05_1503,toilet,2021.1.3,99.94992519488179,
0,0,-4,4,0.85,,,,,0,0,0,0,1,6,62,0,,,,,,,,,,,,,,,,,,,,,,,332.8872209000401,None,332.8872209000401,None,332.3868843000382,None,f,0.4330267000477761,332.8872209000401,None,,,,,,,,,,,,,j,001,2021_Jul_05_1503,toilet,2021.1.3,99.94992519488179,
0,180,4,-4,0.97,,,,,0,0,0,0,1,7,63,23,,,,,,,,,,,,,,,,,,,,,,,334.328198999865,None,334.328198999865,None,333.8278607998509,None,j,0.5121861998923123,334.328198999865,None,,,,,,,,,,,,,j,001,2021_Jul_05_1503,toilet,2021.1.3,99.94992519488179,
180,180,4,-4,0.97,,,,,0,0,0,0,1,8,64,37,,,,,,,,,,,,,,,,,,,,,,,335.8692478998564,None,335.8692478998564,None,335.36890679993667,None,j,1.3231478999368846,335.8692478998564,None,,,,,,,,,,,,,j,001,2021_Jul_05_1503,toilet,2021.1.3,99.94992519488179,
180,0,-4,4,1.0,,,,,0,0,0,0,1,9,65,45,,,,,,,,,,,,,,,,,,,,,,,338.22091559995897,None,338.22091559995897,None,337.72058840002865,None,f,1.051343600032851,338.22091559995897,None,,,,,,,,,,,,,j,001,2021_Jul_05_1503,toilet,2021.1.3,99.94992519488179,
0,180,4,-4,1.15,,,,,0,0,0,0,1,10,66,27,,,,,,,,,,,,,,,,,,,,,,,340.2722322999034,None,340.2722322999034,None,339.77188599994406,None,f,0.5680252998135984,340.2722322999034,None,,,,,,,,,,,,,j,001,2021_Jul_05_1503,toilet,2021.1.3,99.94992519488179,
0,0,4,-4,1.0,,,,,0,0,0,0,1,11,67,10,,,,,,,,,,,,,,,,,,,,,,,341.843288899865,None,341.843288899865,None,341.3429550998844,None,j,0.4850572000723332,341.843288899865,None,,,,,,,,,,,,,j,001,2021_Jul_05_1503,toilet,2021.1.3,99.94992519488179,
0,180,4,-4,1.06,,,,,0,0,0,0,1,12,68,26,,,,,,,,,,,,,,,,,,,,,,,343.3543139998801,None,343.3543139998801,None,342.85397499985993,None,f,0.5579208999406546,343.3543139998801,None,,,,,,,,,,,,,j,001,2021_Jul_05_1503,toilet,2021.1.3,99.94992519488179,
180,0,-4,4,1.06,,,,,0,0,0,0,1,13,69,47,,,,,,,,,,,,,,,,,,,,,,,344.9254670999944,None,344.9254670999944,None,344.4250167000573,None,j,0.7148476999718696,344.9254670999944,None,,,,,,,,,,,,,j,001,2021_Jul_05_1503,toilet,2021.1.3,99.94992519488179,
0,180,4,-4,1.03,,,,,0,0,0,0,1,14,70,25,,,,,,,,,,,,,,,,,,,,,,,346.6565529999789,None,346.6565529999789,None,346.156312600011,None,j,0.3436100999824703,346.6565529999789,None,,,,,,,,,,,,,j,001,2021_Jul_05_1503,toilet,2021.1.3,99.94992519488179,
0,180,4,-4,1.0,,,,,0,0,0,0,1,15,71,24,,,,,,,,,,,,,,,,,,,,,,,348.0075047998689,None,348.0075047998689,None,347.5071302000433,None,f,0.5766748001333326,348.0075047998689,None,,,,,,,,,,,,,j,001,2021_Jul_05_1503,toilet,2021.1.3,99.94992519488179,
180,0,4,-4,0.85,,,,,0,0,0,0,1,16,72,49,,,,,,,,,,,,,,,,,,,,,,,349.5885419999249,None,349.5885419999249,None,349.08820310002193,None,j,0.6759411999955773,349.5885419999249,None,,,,,,,,,,,,,j,001,2021_Jul_05_1503,toilet,2021.1.3,99.94992519488179,
0,180,-4,4,1.15,,,,,0,0,0,0,1,17,73,20,,,,,,,,,,,,,,,,,,,,,,,351.27968609984964,None,351.27968609984964,None,350.7793492998462,None,j,0.48861769982613623,351.27968609984964,None,,,,,,,,,,,,,j,001,2021_Jul_05_1503,toilet,2021.1.3,99.94992519488179,
0,0,-4,4,1.06,,,,,0,0,0,0,1,18,74,5,,,,,,,,,,,,,,,,,,,,,,,352.78074479987845,None,352.78074479987845,None,352.28046149993315,None,j,1.5154126000124961,352.78074479987845,None,,,,,,,,,,,,,j,001,2021_Jul_05_1503,toilet,2021.1.3,99.94992519488179,
180,180,4,-4,1.03,,,,,0,0,0,0,1,19,75,39,,,,,,,,,,,,,,,,,,,,,,,355.3024122000206,None,355.3024122000206,None,354.80206949985586,None,f,0.7377698000054806,355.3024122000206,None,,,,,,,,,,,,,j,001,2021_Jul_05_1503,toilet,2021.1.3,99.94992519488179,
0,180,4,-4,0.85,,,,,0,0,0,0,1,20,76,21,,,,,,,,,,,,,,,,,,,,,,,357.04359259991907,None,357.04359259991907,None,356.54325139988214,None,j,0.40473890001885593,357.04359259991907,None,,,,,,,,,,,,,j,001,2021_Jul_05_1503,toilet,2021.1.3,99.94992519488179,
0,0,4,-4,0.94,,,,,0,0,0,0,1,21,77,8,,,,,,,,,,,,,,,,,,,,,,,358.4745608000085,None,358.4745608000085,None,357.97422289988026,None,j,0.3978061000816524,358.4745608000085,None,,,,,,,,,,,,,j,001,2021_Jul_05_1503,toilet,2021.1.3,99.94992519488179,
0,180,-4,4,1.06,,,,,0,0,0,0,1,22,78,19,,,,,,,,,,,,,,,,,,,,,,,359.88559419987723,None,359.88559419987723,None,359.38526839995757,None,j,0.4906511001754552,359.88559419987723,None,,,,,,,,,,,,,j,001,2021_Jul_05_1503,toilet,2021.1.3,99.94992519488179,
180,0,4,-4,0.94,,,,,0,0,0,0,1,23,79,50,,,,,,,,,,,,,,,,,,,,,,,361.38657530001365,None,361.38657530001365,None,360.88623689999804,None,j,0.3975887999404222,361.38657530001365,None,,,,,,,,,,,,,j,001,2021_Jul_05_1503,toilet,2021.1.3,99.94992519488179,
0,180,-4,4,0.94,,,,,0,0,0,0,1,24,80,15,,,,,,,,,,,,,,,,,,,,,,,362.78748439997435,None,362.78748439997435,None,362.2871518000029,None,f,0.532846299931407,362.78748439997435,None,,,,,,,,,,,,,j,001,2021_Jul_05_1503,toilet,2021.1.3,99.94992519488179,
180,0,-4,4,1.15,,,,,0,0,0,0,1,25,81,48,,,,,,,,,,,,,,,,,,,,,,,364.32852800004184,None,364.32852800004184,None,363.8281944000628,None,j,0.36763240001164377,364.32852800004184,None,,,,,,,,,,,,,j,001,2021_Jul_05_1503,toilet,2021.1.3,99.94992519488179,
180,180,-4,4,0.97,,,,,0,0,0,0,1,26,82,30,,,,,,,,,,,,,,,,,,,,,,,365.69946080003865,None,365.69946080003865,None,365.19911879999563,None,f,0.45266610011458397,365.69946080003865,None,,,,,,,,,,,,,j,001,2021_Jul_05_1503,toilet,2021.1.3,99.94992519488179,
0,0,-4,4,0.97,,,,,0,0,0,0,1,27,83,2,,,,,,,,,,,,,,,,,,,,,,,367.160517900018,None,367.160517900018,None,366.66011189995334,None,j,0.271797499852255,367.160517900018,None,,,,,,,,,,,,,j,001,2021_Jul_05_1503,toilet,2021.1.3,99.94992519488179,
0,180,-4,4,0.85,,,,,0,0,0,0,1,28,84,14,,,,,,,,,,,,,,,,,,,,,,,368.45132409990765,None,368.45132409990765,None,367.95102269994095,None,f,0.4208307999651879,368.45132409990765,None,,,,,,,,,,,,,j,001,2021_Jul_05_1503,toilet,2021.1.3,99.94992519488179,
0,0,4,-4,0.97,,,,,0,0,0,0,1,29,85,9,,,,,,,,,,,,,,,,,,,,,,,369.87229099986143,None,369.87229099986143,None,369.3719482999295,None,j,0.343851099954918,369.87229099986143,None,,,,,,,,,,,,,j,001,2021_Jul_05_1503,toilet,2021.1.3,99.94992519488179,
0,0,4,-4,1.15,,,,,0,0,0,0,1,30,86,13,,,,,,,,,,,,,,,,,,,,,,,371.2232039999217,None,371.2232039999217,None,370.722863300005,None,f,0.3210327001288533,371.2232039999217,None,,,,,,,,,,,,,j,001,2021_Jul_05_1503,toilet,2021.1.3,99.94992519488179,
180,0,-4,4,1.03,,,,,0,0,0,0,1,31,87,46,,,,,,,,,,,,,,,,,,,,,,,372.5541109999176,None,372.5541109999176,None,372.05376889999025,None,j,0.3500834000296891,372.5541109999176,None,,,,,,,,,,,,,j,001,2021_Jul_05_1503,toilet,2021.1.3,99.94992519488179,
180,0,-4,4,0.94,,,,,0,0,0,0,1,32,88,43,,,,,,,,,,,,,,,,,,,,,,,373.90510109998286,None,373.90510109998286,None,373.40468250005506,None,f,2.503131999867037,373.90510109998286,None,,,,,,,,,,,,,j,001,2021_Jul_05_1503,toilet,2021.1.3,99.94992519488179,
0,0,-4,4,0.94,,,,,0,0,0,0,1,33,89,1,,,,,,,,,,,,,,,,,,,,,,,377.41740299994126,None,377.41740299994126,None,376.9170607998967,None,f,0.7667209999635816,377.41740299994126,None,,,,,,,,,,,,,j,001,2021_Jul_05_1503,toilet,2021.1.3,99.94992519488179,
0,0,4,-4,1.03,,,,,0,0,0,0,1,34,90,11,,,,,,,,,,,,,,,,,,,,,,,379.18860329990275,None,379.18860329990275,None,378.6882618998643,None,f,1.0116018999833614,379.18860329990275,None,,,,,,,,,,,,,j,001,2021_Jul_05_1503,toilet,2021.1.3,99.94992519488179,
180,180,-4,4,0.85,,,,,0,0,0,0,1,35,91,28,,,,,,,,,,,,,,,,,,,,,,,381.2099723999854,None,381.2099723999854,None,380.70962719991803,None,f,0.8943107000086457,381.2099723999854,None,,,,,,,,,,,,,j,001,2021_Jul_05_1503,toilet,2021.1.3,99.94992519488179,
0,180,-4,4,1.03,,,,,0,0,0,0,1,36,92,18,,,,,,,,,,,,,,,,,,,,,,,383.12136059999466,None,383.12136059999466,None,382.6210022000596,None,j,0.4229097000788897,383.12136059999466,None,,,,,,,,,,,,,j,001,2021_Jul_05_1503,toilet,2021.1.3,99.94992519488179,
180,0,4,-4,0.97,,,,,0,0,0,0,1,37,93,51,,,,,,,,,,,,,,,,,,,,,,,384.5522316999268,None,384.5522316999268,None,384.0518982000649,None,f,0.3679064998868853,384.5522316999268,None,,,,,,,,,,,,,j,001,2021_Jul_05_1503,toilet,2021.1.3,99.94992519488179,
0,180,-4,4,0.97,,,,,0,0,0,0,1,38,94,16,,,,,,,,,,,,,,,,,,,,,,,385.9231656999327,None,385.9231656999327,None,385.4228290000465,None,f,0.8690312001854181,385.9231656999327,None,,,,,,,,,,,,,j,001,2021_Jul_05_1503,toilet,2021.1.3,99.94992519488179,
180,180,-4,4,0.94,,,,,0,0,0,0,1,39,95,29,,,,,,,,,,,,,,,,,,,,,,,387.794435699936,None,387.794435699936,None,387.29409380001016,None,f,0.9978213000576943,387.794435699936,None,,,,,,,,,,,,,j,001,2021_Jul_05_1503,toilet,2021.1.3,99.94992519488179,
0,0,-4,4,1.15,,,,,0,0,0,0,1,40,96,6,,,,,,,,,,,,,,,,,,,,,,,389.80579210002907,None,389.80579210002907,None,389.3055290998891,None,j,0.47447690018452704,389.80579210002907,None,,,,,,,,,,,,,j,001,2021_Jul_05_1503,toilet,2021.1.3,99.94992519488179,
0,0,4,-4,1.06,,,,,0,0,0,0,1,41,97,12,,,,,,,,,,,,,,,,,,,,,,,391.296809699852,None,391.296809699852,None,390.7964933998883,None,f,0.35925550013780594,391.296809699852,None,,,,,,,,,,,,,j,001,2021_Jul_05_1503,toilet,2021.1.3,99.94992519488179,
180,0,-4,4,0.97,,,,,0,0,0,0,1,42,98,44,,,,,,,,,,,,,,,,,,,,,,,392.65772929997183,None,392.65772929997183,None,392.1573904999532,None,f,0.5665889999363571,392.65772929997183,None,,,,,,,,,,,,,j,001,2021_Jul_05_1503,toilet,2021.1.3,99.94992519488179,
0,0,-4,4,1.0,,,,,0,0,0,0,1,43,99,3,,,,,,,,,,,,,,,,,,,,,,,394.24880579998717,None,394.24880579998717,None,393.74846719997004,None,j,0.4635044999886304,394.24880579998717,None,,,,,,,,,,,,,j,001,2021_Jul_05_1503,toilet,2021.1.3,99.94992519488179,
180,180,4,-4,0.85,,,,,0,0,0,0,1,44,100,35,,,,,,,,,,,,,,,,,,,,,,,395.7398226999212,None,395.7398226999212,None,395.2394780998584,None,j,0.47653210000135005,395.7398226999212,None,,,,,,,,,,,,,j,001,2021_Jul_05_1503,toilet,2021.1.3,99.94992519488179,
0,180,4,-4,0.94,,,,,0,0,0,0,1,45,101,22,,,,,,,,,,,,,,,,,,,,,,,397.2409272999503,None,397.2409272999503,None,396.7404982999433,None,f,0.4792482000775635,397.2409272999503,None,,,,,,,,,,,,,j,001,2021_Jul_05_1503,toilet,2021.1.3,99.94992519488179,
0,180,-4,4,1.0,,,,,0,0,0,0,1,46,102,17,,,,,,,,,,,,,,,,,,,,,,,398.73184120003134,None,398.73184120003134,None,398.23150200000964,None,j,0.44437570008449256,398.73184120003134,None,,,,,,,,,,,,,j,001,2021_Jul_05_1503,toilet,2021.1.3,99.94992519488179,
180,0,4,-4,1.0,,,,,0,0,0,0,1,47,103,52,,,,,,,,,,,,,,,,,,,,,,,400.18282780004665,None,400.18282780004665,None,399.6824880000204,None,f,0.8175137999933213,400.18282780004665,None,,,,,,,,,,,,,j,001,2021_Jul_05_1503,toilet,2021.1.3,99.94992519488179,
0,0,4,-4,0.85,,,,,0,0,0,0,1,48,104,7,,,,,,,,,,,,,,,,,,,,,,,402.024102400057,None,402.024102400057,None,401.5237388999667,None,j,0.41598700010217726,402.024102400057,None,,,,,,,,,,,,,j,001,2021_Jul_05_1503,toilet,2021.1.3,99.94992519488179,
180,180,-4,4,1.0,,,,,0,0,0,0,1,49,105,31,,,,,,,,,,,,,,,,,,,,,,,403.44512349995784,None,403.44512349995784,None,402.9446979998611,None,f,0.5310778999701142,403.44512349995784,None,,,,,,,,,,,,,j,001,2021_Jul_05_1503,toilet,2021.1.3,99.94992519488179,
180,0,4,-4,1.15,,,,,0,0,0,0,1,50,106,55,,,,,,,,,,,,,,,,,,,,,,,404.9861240000464,None,404.9861240000464,None,404.4858345000539,None,f,0.4460473000071943,404.9861240000464,None,,,,,,,,,,,,,j,001,2021_Jul_05_1503,toilet,2021.1.3,99.94992519488179,
180,180,4,-4,0.94,,,,,0,0,0,0,1,51,107,36,,,,,,,,,,,,,,,,,,,,,,,406.4470712998882,None,406.4470712998882,None,405.94673969992436,None,j,0.5370386999566108,406.4470712998882,None,,,,,,,,,,,,,j,001,2021_Jul_05_1503,toilet,2021.1.3,99.94992519488179,
180,180,4,-4,1.06,,,,,0,0,0,0,1,52,108,40,,,,,,,,,,,,,,,,,,,,,,,407.9881106999237,None,407.9881106999237,None,407.48778119985946,None,f,0.4841533999424428,407.9881106999237,None,,,,,,,,,,,,,j,001,2021_Jul_05_1503,toilet,2021.1.3,99.94992519488179,
180,180,-4,4,1.03,,,,,0,0,0,0,1,53,109,32,,,,,,,,,,,,,,,,,,,,,,,409.49912479985505,None,409.49912479985505,None,408.99879879993387,None,j,0.6531690000556409,409.49912479985505,None,,,,,,,,,,,,,j,001,2021_Jul_05_1503,toilet,2021.1.3,99.94992519488179,
180,0,4,-4,1.03,,,,,0,0,0,0,1,54,110,53,,,,,,,,,,,,,,,,,,,,,,,411.17034940002486,None,411.17034940002486,None,410.6699381999206,None,f,0.5498236001003534,411.17034940002486,None,,,,,,,,,,,,,j,001,2021_Jul_05_1503,toilet,2021.1.3,99.94992519488179,
180,180,4,-4,1.0,,,,,0,0,0,0,1,55,111,38,,,,,,,,,,,,,,,,,,,,,,,412.7313299998641,None,412.7313299998641,None,412.231065900065,None,f,0.9087853000964969,412.7313299998641,None,,,,,,,,,,,,,j,001,2021_Jul_05_1503,toilet,2021.1.3,99.94992519488179,
,,,,,,,,,0,0,0,0,,,,,,,,,,,,,,,,,,,,,,,,,,,,,,,,,,,,,413.6620111998636,None,space,5.818108399864286,413.6620111998636,None,,,,,,,j,001,2021_Jul_05_1503,toilet,2021.1.3,99.94992519488179,
0,0,-4,4,0.94,,,,,1,0,1,0,0,0,0,1,,,,,,,,,,,,,,,,,419.4959368999116,None,space,3.7122239000163972,419.4959368999116,None,424.2191204999108,None,424.2191204999108,None,423.71877759997733,None,f,0.6531456001102924,424.2191204999108,None,,,,,,,,,,,,,j,001,2021_Jul_05_1503,toilet,2021.1.3,99.94992519488179,
180,0,-4,4,0.94,,,,,1,0,1,0,0,1,1,43,,,,,,,,,,,,,,,,,,,,,,,425.9002562998794,None,425.9002562998794,None,425.39999299985357,None,f,0.5399096999317408,425.9002562998794,None,,,,,,,,,,,,,j,001,2021_Jul_05_1503,toilet,2021.1.3,99.94992519488179,
0,0,4,-4,1.0,,,,,1,0,1,0,0,2,2,10,,,,,,,,,,,,,,,,,,,,,,,427.45134869986214,None,427.45134869986214,None,426.9510569998529,None,j,0.476730199996382,427.45134869986214,None,,,,,,,,,,,,,j,001,2021_Jul_05_1503,toilet,2021.1.3,99.94992519488179,
0,180,-4,4,1.06,,,,,1,0,1,0,0,3,3,19,,,,,,,,,,,,,,,,,,,,,,,428.9323074000422,None,428.9323074000422,None,428.4319718000479,None,j,0.3717596000060439,428.9323074000422,None,,,,,,,,,,,,,j,001,2021_Jul_05_1503,toilet,2021.1.3,99.94992519488179,
180,180,4,-4,0.85,,,,,1,0,1,0,0,4,4,35,,,,,,,,,,,,,,,,,,,,,,,430.3132495000027,None,430.3132495000027,None,429.81290789996274,None,j,0.49483859981410205,430.3132495000027,None,,,,,,,,,,,,,j,001,2021_Jul_05_1503,toilet,2021.1.3,99.94992519488179,
0,0,4,-4,0.97,,,,,1,0,1,0,0,5,5,9,,,,,,,,,,,,,,,,,,,,,,,431.81429470004514,None,431.81429470004514,None,431.31392899993807,None,j,0.4818369001150131,431.81429470004514,None,,,,,,,,,,,,,j,001,2021_Jul_05_1503,toilet,2021.1.3,99.94992519488179,
180,180,-4,4,1.15,,,,,1,0,1,0,0,6,6,34,,,,,,,,,,,,,,,,,,,,,,,433.2952451000456,None,433.2952451000456,None,432.7949280999601,None,j,0.5529672999400645,433.2952451000456,None,,,,,,,,,,,,,j,001,2021_Jul_05_1503,toilet,2021.1.3,99.94992519488179,
0,0,4,-4,1.03,,,,,1,0,1,0,0,7,7,11,,,,,,,,,,,,,,,,,,,,,,,434.8663705000654,None,434.8663705000654,None,434.3660722000059,None,f,0.437647599959746,434.8663705000654,None,,,,,,,,,,,,,j,001,2021_Jul_05_1503,toilet,2021.1.3,99.94992519488179,
180,0,-4,4,1.06,,,,,1,0,1,0,0,8,8,47,,,,,,,,,,,,,,,,,,,,,,,436.30731029994786,None,436.30731029994786,None,435.80696769990027,None,j,0.8367967000231147,436.30731029994786,None,,,,,,,,,,,,,j,001,2021_Jul_05_1503,toilet,2021.1.3,99.94992519488179,
180,180,4,-4,0.97,,,,,1,0,1,0,0,9,9,37,,,,,,,,,,,,,,,,,,,,,,,438.1485546999611,None,438.1485546999611,None,437.6482166000642,None,j,0.5956681000534445,438.1485546999611,None,,,,,,,,,,,,,j,001,2021_Jul_05_1503,toilet,2021.1.3,99.94992519488179,
180,180,-4,4,0.94,,,,,1,0,1,0,0,10,10,29,,,,,,,,,,,,,,,,,,,,,,,439.7596459998749,None,439.7596459998749,None,439.25930879986845,None,f,0.536611899966374,439.7596459998749,None,,,,,,,,,,,,,j,001,2021_Jul_05_1503,toilet,2021.1.3,99.94992519488179,
180,0,4,-4,0.85,,,,,1,0,1,0,0,11,11,49,,,,,,,,,,,,,,,,,,,,,,,441.3107332000509,None,441.3107332000509,None,440.8104321998544,None,j,0.47347990004345775,441.3107332000509,None,,,,,,,,,,,,,j,001,2021_Jul_05_1503,toilet,2021.1.3,99.94992519488179,
0,180,4,-4,1.0,,,,,1,0,1,0,0,12,12,24,,,,,,,,,,,,,,,,,,,,,,,442.8017037999816,None,442.8017037999816,None,442.301462699892,None,f,1.2063905999530107,442.8017037999816,None,,,,,,,,,,,,,j,001,2021_Jul_05_1503,toilet,2021.1.3,99.94992519488179,
0,0,4,-4,0.94,,,,,1,0,1,0,0,13,13,8,,,,,,,,,,,,,,,,,,,,,,,445.0132068998646,None,445.0132068998646,None,444.5128651999403,None,j,0.7069953999016434,445.0132068998646,None,,,,,,,,,,,,,j,001,2021_Jul_05_1503,toilet,2021.1.3,99.94992519488179,
180,180,4,-4,1.03,,,,,1,0,1,0,0,14,14,39,,,,,,,,,,,,,,,,,,,,,,,446.7443808000535,None,446.7443808000535,None,446.2440420000348,None,f,0.543761899927631,446.7443808000535,None,,,,,,,,,,,,,j,001,2021_Jul_05_1503,toilet,2021.1.3,99.94992519488179,
0,0,-4,4,0.85,,,,,1,0,1,0,0,15,15,0,,,,,,,,,,,,,,,,,,,,,,,448.29550540004857,None,448.29550540004857,None,447.79509379994124,None,f,0.5608103999402374,448.29550540004857,None,,,,,,,,,,,,,j,001,2021_Jul_05_1503,toilet,2021.1.3,99.94992519488179,
180,180,-4,4,1.03,,,,,1,0,1,0,0,16,16,32,,,,,,,,,,,,,,,,,,,,,,,449.8664911000524,None,449.8664911000524,None,449.36624170001596,None,j,0.509577700169757,449.8664911000524,None,,,,,,,,,,,,,j,001,2021_Jul_05_1503,toilet,2021.1.3,99.94992519488179,
180,180,-4,4,1.0,,,,,1,0,1,0,0,17,17,31,,,,,,,,,,,,,,,,,,,,,,,451.3775199998636,None,451.3775199998636,None,450.87717889994383,None,f,0.5345603998284787,451.3775199998636,None,,,,,,,,,,,,,j,001,2021_Jul_05_1503,toilet,2021.1.3,99.94992519488179,
180,0,4,-4,1.0,,,,,1,0,1,0,0,18,18,52,,,,,,,,,,,,,,,,,,,,,,,452.9185653999448,None,452.9185653999448,None,452.4182261999231,None,j,0.3694751001894474,452.9185653999448,None,,,,,,,,,,,,,j,001,2021_Jul_05_1503,toilet,2021.1.3,99.94992519488179,
0,180,4,-4,0.97,,,,,1,0,1,0,0,19,19,23,,,,,,,,,,,,,,,,,,,,,,,454.2894927000161,None,454.2894927000161,None,453.7891522999853,None,f,0.27864839998073876,454.2894927000161,None,,,,,,,,,,,,,j,001,2021_Jul_05_1503,toilet,2021.1.3,99.94992519488179,
0,0,-4,4,1.06,,,,,1,0,1,0,0,20,20,5,,,,,,,,,,,,,,,,,,,,,,,455.5804628999904,None,455.5804628999904,None,455.0801109999884,None,j,0.4437450999394059,455.5804628999904,None,,,,,,,,,,,,,j,001,2021_Jul_05_1503,toilet,2021.1.3,99.94992519488179,
180,0,-4,4,1.03,,,,,1,0,1,0,0,21,21,46,,,,,,,,,,,,,,,,,,,,,,,457.0413561000023,None,457.0413561000023,None,456.54109339998104,None,f,0.7108037997968495,457.0413561000023,None,,,,,,,,,,,,,j,001,2021_Jul_05_1503,toilet,2021.1.3,99.94992519488179,
180,180,-4,4,0.85,,,,,1,0,1,0,0,22,22,28,,,,,,,,,,,,,,,,,,,,,,,458.75251799984835,None,458.75251799984835,None,458.25217520003207,None,f,0.45570629998110235,458.75251799984835,None,,,,,,,,,,,,,j,001,2021_Jul_05_1503,toilet,2021.1.3,99.94992519488179,
0,180,4,-4,0.85,,,,,1,0,1,0,0,23,23,21,,,,,,,,,,,,,,,,,,,,,,,460.223516699858,None,460.223516699858,None,459.7231707999017,None,j,0.5207220001611859,460.223516699858,None,,,,,,,,,,,,,j,001,2021_Jul_05_1503,toilet,2021.1.3,99.94992519488179,
0,180,4,-4,1.06,,,,,1,0,1,0,0,24,24,26,,,,,,,,,,,,,,,,,,,,,,,461.74454279989004,None,461.74454279989004,None,461.24420309998095,None,j,1.2874884998891503,461.74454279989004,None,,,,,,,,,,,,,j,001,2021_Jul_05_1503,toilet,2021.1.3,99.94992519488179,
0,0,-4,4,1.15,,,,,1,0,1,0,0,25,25,6,,,,,,,,,,,,,,,,,,,,,,,464.0361701999791,None,464.0361701999791,None,463.5358414000366,None,j,0.45182619988918304,464.0361701999791,None,,,,,,,,,,,,,j,001,2021_Jul_05_1503,toilet,2021.1.3,99.94992519488179,
180,0,4,-4,0.97,,,,,1,0,1,0,0,26,26,51,,,,,,,,,,,,,,,,,,,,,,,465.4971002000384,None,465.4971002000384,None,464.9967811999377,None,f,1.151066199876368,465.4971002000384,None,,,,,,,,,,,,,j,001,2021_Jul_05_1503,toilet,2021.1.3,99.94992519488179,
180,180,4,-4,1.15,,,,,1,0,1,0,0,27,27,41,,,,,,,,,,,,,,,,,,,,,,,467.6485460998956,None,467.6485460998956,None,467.14820809988305,None,f,0.631479499861598,467.6485460998956,None,,,,,,,,,,,,,j,001,2021_Jul_05_1503,toilet,2021.1.3,99.94992519488179,
0,180,-4,4,0.97,,,,,1,0,1,0,0,28,28,16,,,,,,,,,,,,,,,,,,,,,,,469.2796582998708,None,469.2796582998708,None,468.7793107999023,None,f,0.6645840001292527,469.2796582998708,None,,,,,,,,,,,,,j,001,2021_Jul_05_1503,toilet,2021.1.3,99.94992519488179,
0,180,4,-4,0.94,,,,,1,0,1,0,0,29,29,22,,,,,,,,,,,,,,,,,,,,,,,470.9708934999071,None,470.9708934999071,None,470.47049520001747,None,j,0.5413410998880863,470.9708934999071,None,,,,,,,,,,,,,j,001,2021_Jul_05_1503,toilet,2021.1.3,99.94992519488179,
180,0,-4,4,1.15,,,,,1,0,1,0,0,30,30,48,,,,,,,,,,,,,,,,,,,,,,,472.5218485998921,None,472.5218485998921,None,472.0215085998643,None,j,0.398219799855724,472.5218485998921,None,,,,,,,,,,,,,j,001,2021_Jul_05_1503,toilet,2021.1.3,99.94992519488179,
180,180,4,-4,0.94,,,,,1,0,1,0,0,31,31,36,,,,,,,,,,,,,,,,,,,,,,,473.9227930000052,None,473.9227930000052,None,473.4224572998937,None,j,0.38925030012615025,473.9227930000052,None,,,,,,,,,,,,,j,001,2021_Jul_05_1503,toilet,2021.1.3,99.94992519488179,
180,0,4,-4,1.06,,,,,1,0,1,0,0,32,32,54,,,,,,,,,,,,,,,,,,,,,,,475.313739300007,None,475.313739300007,None,474.81341840000823,None,f,0.45444940007291734,475.313739300007,None,,,,,,,,,,,,,j,001,2021_Jul_05_1503,toilet,2021.1.3,99.94992519488179,
0,0,-4,4,1.03,,,,,1,0,1,0,0,33,33,4,,,,,,,,,,,,,,,,,,,,,,,476.79474529996514,None,476.79474529996514,None,476.29439860000275,None,j,0.3973721000365913,476.79474529996514,None,,,,,,,,,,,,,j,001,2021_Jul_05_1503,toilet,2021.1.3,99.94992519488179,
180,0,-4,4,0.85,,,,,1,0,1,0,0,34,34,42,,,,,,,,,,,,,,,,,,,,,,,478.2056980000343,None,478.2056980000343,None,477.7054552999325,None,f,0.4264243000652641,478.2056980000343,None,,,,,,,,,,,,,j,001,2021_Jul_05_1503,toilet,2021.1.3,99.94992519488179,
0,0,-4,4,0.97,,,,,1,0,1,0,0,35,35,2,,,,,,,,,,,,,,,,,,,,,,,479.6466806998942,None,479.6466806998942,None,479.1464197000023,None,j,0.47344849980436265,479.6466806998942,None,,,,,,,,,,,,,j,001,2021_Jul_05_1503,toilet,2021.1.3,99.94992519488179,
0,0,4,-4,1.06,,,,,1,0,1,0,0,36,36,12,,,,,,,,,,,,,,,,,,,,,,,481.1276795999147,None,481.1276795999147,None,480.62733899988234,None,f,0.44835070008412004,481.1276795999147,None,,,,,,,,,,,,,j,001,2021_Jul_05_1503,toilet,2021.1.3,99.94992519488179,
180,0,-4,4,0.97,,,,,1,0,1,0,0,37,37,44,,,,,,,,,,,,,,,,,,,,,,,482.5786576999817,None,482.5786576999817,None,482.0783251998946,None,f,0.46939630014821887,482.5786576999817,None,,,,,,,,,,,,,j,001,2021_Jul_05_1503,toilet,2021.1.3,99.94992519488179,
0,0,4,-4,1.15,,,,,1,0,1,0,0,38,38,13,,,,,,,,,,,,,,,,,,,,,,,484.0496610000264,None,484.0496610000264,None,483.54931689985096,None,f,0.5345351002179086,484.0496610000264,None,,,,,,,,,,,,,j,001,2021_Jul_05_1503,toilet,2021.1.3,99.94992519488179,
0,180,-4,4,0.94,,,,,1,0,1,0,0,39,39,15,,,,,,,,,,,,,,,,,,,,,,,485.61071449983865,None,485.61071449983865,None,485.11047049984336,None,f,0.5415070001035929,485.61071449983865,None,,,,,,,,,,,,,j,001,2021_Jul_05_1503,toilet,2021.1.3,99.94992519488179,
180,0,4,-4,0.94,,,,,1,0,1,0,0,40,40,50,,,,,,,,,,,,,,,,,,,,,,,487.1617978999857,None,487.1617978999857,None,486.66142440005206,None,j,0.6702320999465883,487.1617978999857,None,,,,,,,,,,,,,j,001,2021_Jul_05_1503,toilet,2021.1.3,99.94992519488179,
0,180,4,-4,1.03,,,,,1,0,1,0,0,41,41,25,,,,,,,,,,,,,,,,,,,,,,,488.8328978000209,None,488.8328978000209,None,488.33255789987743,None,j,0.7592088999226689,488.8328978000209,None,,,,,,,,,,,,,j,001,2021_Jul_05_1503,toilet,2021.1.3,99.94992519488179,
180,180,-4,4,1.06,,,,,1,0,1,0,0,42,42,33,,,,,,,,,,,,,,,,,,,,,,,490.60410379990935,None,490.60410379990935,None,490.10376149998046,None,j,0.556044900091365,490.60410379990935,None,,,,,,,,,,,,,j,001,2021_Jul_05_1503,toilet,2021.1.3,99.94992519488179,
0,180,-4,4,1.0,,,,,1,0,1,0,0,43,43,17,,,,,,,,,,,,,,,,,,,,,,,492.17525590001605,None,492.17525590001605,None,491.6748251998797,None,f,0.568710400024429,492.17525590001605,None,,,,,,,,,,,,,j,001,2021_Jul_05_1503,toilet,2021.1.3,99.94992519488179,
0,0,-4,4,1.0,,,,,1,0,1,0,0,44,44,3,,,,,,,,,,,,,,,,,,,,,,,493.74626960000023,None,493.74626960000023,None,493.24597169994377,None,f,0.46971930004656315,493.74626960000023,None,,,,,,,,,,,,,j,001,2021_Jul_05_1503,toilet,2021.1.3,99.94992519488179,
180,0,4,-4,1.15,,,,,1,0,1,0,0,45,45,55,,,,,,,,,,,,,,,,,,,,,,,495.2172417000402,None,495.2172417000402,None,494.716885099886,None,f,0.47075380012393,495.2172417000402,None,,,,,,,,,,,,,j,001,2021_Jul_05_1503,toilet,2021.1.3,99.94992519488179,
0,180,4,-4,1.15,,,,,1,0,1,0,0,46,46,27,,,,,,,,,,,,,,,,,,,,,,,496.6882209999021,None,496.6882209999021,None,496.18788399989717,None,f,0.43985199998132885,496.6882209999021,None,,,,,,,,,,,,,j,001,2021_Jul_05_1503,toilet,2021.1.3,99.94992519488179,
180,180,4,-4,1.0,,,,,1,0,1,0,0,47,47,38,,,,,,,,,,,,,,,,,,,,,,,498.1392041000072,None,498.1392041000072,None,497.6388637998607,None,j,0.5727788000367582,498.1392041000072,None,,,,,,,,,,,,,j,001,2021_Jul_05_1503,toilet,2021.1.3,99.94992519488179,
180,180,-4,4,0.97,,,,,1,0,1,0,0,48,48,30,,,,,,,,,,,,,,,,,,,,,,,499.7203527998645,None,499.7203527998645,None,499.21993659995496,None,f,0.4638034999370575,499.7203527998645,None,,,,,,,,,,,,,j,001,2021_Jul_05_1503,toilet,2021.1.3,99.94992519488179,
0,180,-4,4,1.15,,,,,1,0,1,0,0,49,49,20,,,,,,,,,,,,,,,,,,,,,,,501.1913530998863,None,501.1913530998863,None,500.6910204999149,None,j,0.38462599995546043,501.1913530998863,None,,,,,,,,,,,,,j,001,2021_Jul_05_1503,toilet,2021.1.3,99.94992519488179,
0,180,-4,4,1.03,,,,,1,0,1,0,0,50,50,18,,,,,,,,,,,,,,,,,,,,,,,502.5822127999272,None,502.5822127999272,None,502.0818749999162,None,f,0.48194209998473525,502.5822127999272,None,,,,,,,,,,,,,j,001,2021_Jul_05_1503,toilet,2021.1.3,99.94992519488179,
180,180,4,-4,1.06,,,,,1,0,1,0,0,51,51,40,,,,,,,,,,,,,,,,,,,,,,,504.0732229000423,None,504.0732229000423,None,503.5728901999537,None,f,0.5269284001551569,504.0732229000423,None,,,,,,,,,,,,,j,001,2021_Jul_05_1503,toilet,2021.1.3,99.94992519488179,
180,0,4,-4,1.03,,,,,1,0,1,0,0,52,52,53,,,,,,,,,,,,,,,,,,,,,,,505.62427899986506,None,505.62427899986506,None,505.1239417998586,None,f,0.44780869991518557,505.62427899986506,None,,,,,,,,,,,,,j,001,2021_Jul_05_1503,toilet,2021.1.3,99.94992519488179,
180,0,-4,4,1.0,,,,,1,0,1,0,0,53,53,45,,,,,,,,,,,,,,,,,,,,,,,507.08539070002735,None,507.08539070002735,None,506.58492879988626,None,f,0.6507225998211652,507.08539070002735,None,,,,,,,,,,,,,j,001,2021_Jul_05_1503,toilet,2021.1.3,99.94992519488179,
0,0,4,-4,0.85,,,,,1,0,1,0,0,54,54,7,,,,,,,,,,,,,,,,,,,,,,,508.7463890998624,None,508.7463890998624,None,508.24614449986257,None,j,0.39762009982950985,508.7463890998624,None,,,,,,,,,,,,,j,001,2021_Jul_05_1503,toilet,2021.1.3,99.94992519488179,
0,180,-4,4,0.85,,,,,1,0,1,0,0,55,55,14,,,,,,,,,,,,,,,,,,,,,,,510.1473425999284,None,510.1473425999284,None,509.6469989998732,None,f,0.404732100199908,510.1473425999284,None,,,,,,,,,,,,,j,001,2021_Jul_05_1503,toilet,2021.1.3,99.94992519488179,
0,0,4,-4,0.94,,,,,1,0,1,0,1,0,56,8,,,,,,,,,,,,,,,,,,,,,,,511.5582959000021,None,511.5582959000021,None,511.05796519992873,None,j,0.449738800060004,511.5582959000021,None,,,,,,,,,,,,,j,001,2021_Jul_05_1503,toilet,2021.1.3,99.94992519488179,
0,0,4,-4,1.0,,,,,1,0,1,0,1,1,57,10,,,,,,,,,,,,,,,,,,,,,,,513.0192911999766,None,513.0192911999766,None,512.5189455999061,None,j,0.6046504999976605,513.0192911999766,None,,,,,,,,,,,,,j,001,2021_Jul_05_1503,toilet,2021.1.3,99.94992519488179,
0,180,4,-4,0.97,,,,,1,0,1,0,1,2,58,23,,,,,,,,,,,,,,,,,,,,,,,514.6304184999317,None,514.6304184999317,None,514.1300287998747,None,j,0.6096489999908954,514.6304184999317,None,,,,,,,,,,,,,j,001,2021_Jul_05_1503,toilet,2021.1.3,99.94992519488179,
0,0,4,-4,1.06,,,,,1,0,1,0,1,3,59,12,,,,,,,,,,,,,,,,,,,,,,,516.2514760000631,None,516.2514760000631,None,515.7511793000158,None,f,0.44451209995895624,516.2514760000631,None,,,,,,,,,,,,,j,001,2021_Jul_05_1503,toilet,2021.1.3,99.94992519488179,
180,0,-4,4,0.85,,,,,1,0,1,0,1,4,60,42,,,,,,,,,,,,,,,,,,,,,,,517.7024578000419,None,517.7024578000419,None,517.2021192000248,None,f,0.6095221000723541,517.7024578000419,None,,,,,,,,,,,,,j,001,2021_Jul_05_1503,toilet,2021.1.3,99.94992519488179,
180,0,-4,4,0.97,,,,,1,0,1,0,1,5,61,44,,,,,,,,,,,,,,,,,,,,,,,519.3135495998431,None,519.3135495998431,None,518.8132146999706,None,f,0.7904909001663327,519.3135495998431,None,,,,,,,,,,,,,j,001,2021_Jul_05_1503,toilet,2021.1.3,99.94992519488179,
180,0,4,-4,0.85,,,,,1,0,1,0,1,6,62,49,,,,,,,,,,,,,,,,,,,,,,,521.1047646000516,None,521.1047646000516,None,520.6044286999386,None,j,0.4712923001497984,521.1047646000516,None,,,,,,,,,,,,,j,001,2021_Jul_05_1503,toilet,2021.1.3,99.94992519488179,
180,0,-4,4,0.94,,,,,1,0,1,0,1,7,63,43,,,,,,,,,,,,,,,,,,,,,,,522.5858521000482,None,522.5858521000482,None,522.0855248000007,None,f,0.36620199983008206,522.5858521000482,None,,,,,,,,,,,,,j,001,2021_Jul_05_1503,toilet,2021.1.3,99.94992519488179,
180,0,4,-4,0.97,,,,,1,0,1,0,1,8,64,51,,,,,,,,,,,,,,,,,,,,,,,523.9667187999003,None,523.9667187999003,None,523.4663668998983,None,j,0.36138710007071495,523.9667187999003,None,,,,,,,,,,,,,j,001,2021_Jul_05_1503,toilet,2021.1.3,99.94992519488179,
180,180,4,-4,0.85,,,,,1,0,1,0,1,9,65,35,,,,,,,,,,,,,,,,,,,,,,,525.3276265000459,None,525.3276265000459,None,524.8272965999786,None,j,0.48841260001063347,525.3276265000459,None,,,,,,,,,,,,,j,001,2021_Jul_05_1503,toilet,2021.1.3,99.94992519488179,
180,180,4,-4,1.0,,,,,1,0,1,0,1,10,66,38,,,,,,,,,,,,,,,,,,,,,,,526.8186381999403,None,526.8186381999403,None,526.3182981000282,None,f,0.5334950000979006,526.8186381999403,None,,,,,,,,,,,,,j,001,2021_Jul_05_1503,toilet,2021.1.3,99.94992519488179,
0,180,4,-4,1.15,,,,,1,0,1,0,1,11,67,27,,,,,,,,,,,,,,,,,,,,,,,528.3696880000643,None,528.3696880000643,None,527.8693522000685,None,f,0.42247579991817474,528.3696880000643,None,,,,,,,,,,,,,j,001,2021_Jul_05_1503,toilet,2021.1.3,99.94992519488179,
180,0,4,-4,1.06,,,,,1,0,1,0,1,12,68,54,,,,,,,,,,,,,,,,,,,,,,,529.8007421998773,None,529.8007421998773,None,529.3004018999636,None,j,0.31929940008558333,529.8007421998773,None,,,,,,,,,,,,,j,001,2021_Jul_05_1503,toilet,2021.1.3,99.94992519488179,
180,180,-4,4,1.0,,,,,1,0,1,0,1,13,69,31,,,,,,,,,,,,,,,,,,,,,,,531.1315758998971,None,531.1315758998971,None,530.631220899988,None,f,0.3643767999019474,531.1315758998971,None,,,,,,,,,,,,,j,001,2021_Jul_05_1503,toilet,2021.1.3,99.94992519488179,
0,180,-4,4,1.15,,,,,1,0,1,0,1,14,70,20,,,,,,,,,,,,,,,,,,,,,,,532.5024898999836,None,532.5024898999836,None,532.0021470999345,None,j,0.2575036999769509,532.5024898999836,None,,,,,,,,,,,,,j,001,2021_Jul_05_1503,toilet,2021.1.3,99.94992519488179,
180,180,-4,4,1.06,,,,,1,0,1,0,1,15,71,33,,,,,,,,,,,,,,,,,,,,,,,533.7633415998425,None,533.7633415998425,None,533.2630047998391,None,j,0.5648207000922412,533.7633415998425,None,,,,,,,,,,,,,j,001,2021_Jul_05_1503,toilet,2021.1.3,99.94992519488179,
0,180,4,-4,0.85,,,,,1,0,1,0,1,16,72,21,,,,,,,,,,,,,,,,,,,,,,,535.3544228998944,None,535.3544228998944,None,534.8540817999747,None,j,0.3657087997999042,535.3544228998944,None,,,,,,,,,,,,,j,001,2021_Jul_05_1503,toilet,2021.1.3,99.94992519488179,
0,180,-4,4,0.85,,,,,1,0,1,0,1,17,73,14,,,,,,,,,,,,,,,,,,,,,,,536.7353560000192,None,536.7353560000192,None,536.2351055999752,None,f,0.5048664000350982,536.7353560000192,None,,,,,,,,,,,,,j,001,2021_Jul_05_1503,toilet,2021.1.3,99.94992519488179,
180,0,-4,4,1.0,,,,,1,0,1,0,1,18,74,45,,,,,,,,,,,,,,,,,,,,,,,538.2563879999798,None,538.2563879999798,None,537.7561339999083,None,j,0.3755844999104738,538.2563879999798,None,,,,,,,,,,,,,j,001,2021_Jul_05_1503,toilet,2021.1.3,99.94992519488179,
0,180,-4,4,1.06,,,,,1,0,1,0,1,19,75,19,,,,,,,,,,,,,,,,,,,,,,,539.6373222998809,None,539.6373222998809,None,539.1369859999977,None,f,0.4666741997934878,539.6373222998809,None,,,,,,,,,,,,,j,001,2021_Jul_05_1503,toilet,2021.1.3,99.94992519488179,
180,0,4,-4,0.94,,,,,1,0,1,0,1,20,76,50,,,,,,,,,,,,,,,,,,,,,,,541.108319299994,None,541.108319299994,None,540.6179857000243,None,j,0.6117322000209242,541.108319299994,None,,,,,,,,,,,,,j,001,2021_Jul_05_1503,toilet,2021.1.3,99.94992519488179,
0,180,-4,4,1.03,,,,,1,0,1,0,1,21,77,18,,,,,,,,,,,,,,,,,,,,,,,542.7294178998563,None,542.7294178998563,None,542.2290793999564,None,j,0.43054920015856624,542.7294178998563,None,,,,,,,,,,,,,j,001,2021_Jul_05_1503,toilet,2021.1.3,99.94992519488179,
180,180,-4,4,0.85,,,,,1,0,1,0,1,22,78,28,,,,,,,,,,,,,,,,,,,,,,,544.1604802999645,None,544.1604802999645,None,543.6600480999332,None,f,0.3757665001321584,544.1604802999645,None,,,,,,,,,,,,,j,001,2021_Jul_05_1503,toilet,2021.1.3,99.94992519488179,
0,0,4,-4,1.03,,,,,1,0,1,0,1,23,79,11,,,,,,,,,,,,,,,,,,,,,,,545.5513283999171,None,545.5513283999171,None,545.0509919000324,None,f,1.4327794001437724,545.5513283999171,None,,,,,,,,,,,,,j,001,2021_Jul_05_1503,toilet,2021.1.3,99.94992519488179,
180,0,4,-4,1.0,,,,,1,0,1,0,1,24,80,52,,,,,,,,,,,,,,,,,,,,,,,547.9929839000106,None,547.9929839000106,None,547.4926455998793,None,f,0.7990761001128703,547.9929839000106,None,,,,,,,,,,,,,j,001,2021_Jul_05_1503,toilet,2021.1.3,99.94992519488179,
0,0,4,-4,0.85,,,,,1,0,1,0,1,25,81,7,,,,,,,,,,,,,,,,,,,,,,,549.8042125999928,None,549.8042125999928,None,549.3038743999787,None,j,0.47593329986557364,549.8042125999928,None,,,,,,,,,,,,,j,001,2021_Jul_05_1503,toilet,2021.1.3,99.94992519488179,
0,0,4,-4,0.97,,,,,1,0,1,0,1,26,82,9,,,,,,,,,,,,,,,,,,,,,,,551.2953144998755,None,551.2953144998755,None,550.7948805000633,None,f,0.7766332998871803,551.2953144998755,None,,,,,,,,,,,,,j,001,2021_Jul_05_1503,toilet,2021.1.3,99.94992519488179,
180,0,-4,4,1.06,,,,,1,0,1,0,1,27,83,47,,,,,,,,,,,,,,,,,,,,,,,553.0864436998963,None,553.0864436998963,None,552.586129900068,None,j,0.5055138000752777,553.0864436998963,None,,,,,,,,,,,,,j,001,2021_Jul_05_1503,toilet,2021.1.3,99.94992519488179,
0,0,-4,4,1.0,,,,,1,0,1,0,1,28,84,3,,,,,,,,,,,,,,,,,,,,,,,554.5974617998581,None,554.5974617998581,None,554.0971484000329,None,f,0.46650650002993643,554.5974617998581,None,,,,,,,,,,,,,j,001,2021_Jul_05_1503,toilet,2021.1.3,99.94992519488179,
180,180,-4,4,0.94,,,,,1,0,1,0,1,29,85,29,,,,,,,,,,,,,,,,,,,,,,,556.06845599995,None,556.06845599995,None,555.5681229999755,None,f,0.4356579000595957,556.06845599995,None,,,,,,,,,,,,,j,001,2021_Jul_05_1503,toilet,2021.1.3,99.94992519488179,
180,180,-4,4,0.97,,,,,1,0,1,0,1,30,86,30,,,,,,,,,,,,,,,,,,,,,,,557.5194387999363,None,557.5194387999363,None,557.0191089999862,None,f,0.552666800096631,557.5194387999363,None,,,,,,,,,,,,,j,001,2021_Jul_05_1503,toilet,2021.1.3,99.94992519488179,
0,180,-4,4,1.0,,,,,1,0,1,0,1,31,87,17,,,,,,,,,,,,,,,,,,,,,,,559.1006094999611,None,559.1006094999611,None,558.6002419998404,None,f,0.4755003999453038,559.1006094999611,None,,,,,,,,,,,,,j,001,2021_Jul_05_1503,toilet,2021.1.3,99.94992519488179,
180,180,-4,4,1.15,,,,,1,0,1,0,1,32,88,34,,,,,,,,,,,,,,,,,,,,,,,560.5915311998688,None,560.5915311998688,None,560.0912223998457,None,j,0.6163587998598814,560.5915311998688,None,,,,,,,,,,,,,j,001,2021_Jul_05_1503,toilet,2021.1.3,99.94992519488179,
0,0,-4,4,0.97,,,,,1,0,1,0,1,33,89,2,,,,,,,,,,,,,,,,,,,,,,,562.2126143998466,None,562.2126143998466,None,561.7122780999634,None,f,0.4515229999087751,562.2126143998466,None,,,,,,,,,,,,,j,001,2021_Jul_05_1503,toilet,2021.1.3,99.94992519488179,
0,180,-4,4,0.94,,,,,1,0,1,0,1,34,90,15,,,,,,,,,,,,,,,,,,,,,,,563.6736091000494,None,563.6736091000494,None,563.173269599909,None,f,0.6544812000356615,563.6736091000494,None,,,,,,,,,,,,,j,001,2021_Jul_05_1503,toilet,2021.1.3,99.94992519488179,
0,180,4,-4,1.03,,,,,1,0,1,0,1,35,91,25,,,,,,,,,,,,,,,,,,,,,,,565.3447555999737,None,565.3447555999737,None,564.8444010999519,None,f,0.7112994999624789,565.3447555999737,None,,,,,,,,,,,,,j,001,2021_Jul_05_1503,toilet,2021.1.3,99.94992519488179,
180,180,4,-4,1.03,,,,,1,0,1,0,1,36,92,39,,,,,,,,,,,,,,,,,,,,,,,567.0559755000286,None,567.0559755000286,None,566.5656578999478,None,j,0.584002299932763,567.0559755000286,None,,,,,,,,,,,,,j,001,2021_Jul_05_1503,toilet,2021.1.3,99.94992519488179,
0,180,4,-4,1.06,,,,,1,0,1,0,1,37,93,26,,,,,,,,,,,,,,,,,,,,,,,568.6469749000389,None,568.6469749000389,None,568.1466419000644,None,f,0.7369566999841481,568.6469749000389,None,,,,,,,,,,,,,j,001,2021_Jul_05_1503,toilet,2021.1.3,99.94992519488179,
0,0,-4,4,1.06,,,,,1,0,1,0,1,38,94,5,,,,,,,,,,,,,,,,,,,,,,,570.3881600999739,None,570.3881600999739,None,569.8878216999583,None,j,0.6439728001132607,570.3881600999739,None,,,,,,,,,,,,,j,001,2021_Jul_05_1503,toilet,2021.1.3,99.94992519488179,
180,180,4,-4,0.97,,,,,1,0,1,0,1,39,95,37,,,,,,,,,,,,,,,,,,,,,,,572.0492848998401,None,572.0492848998401,None,571.5489403000101,None,j,0.790822499897331,572.0492848998401,None,,,,,,,,,,,,,j,001,2021_Jul_05_1503,toilet,2021.1.3,99.94992519488179,
0,0,-4,4,0.85,,,,,1,0,1,0,1,40,96,0,,,,,,,,,,,,,,,,,,,,,,,573.8405724000186,None,573.8405724000186,None,573.3402559000533,None,f,0.8554002000018954,573.8405724000186,None,,,,,,,,,,,,,j,001,2021_Jul_05_1503,toilet,2021.1.3,99.94992519488179,
0,0,4,-4,1.15,,,,,1,0,1,0,1,41,97,13,,,,,,,,,,,,,,,,,,,,,,,575.7017589998432,None,575.7017589998432,None,575.201418899931,None,f,0.5302079000975937,575.7017589998432,None,,,,,,,,,,,,,j,001,2021_Jul_05_1503,toilet,2021.1.3,99.94992519488179,
180,180,4,-4,0.94,,,,,1,0,1,0,1,42,98,36,,,,,,,,,,,,,,,,,,,,,,,577.232798699988,None,577.232798699988,None,576.732456699945,None,j,0.4551065999548882,577.232798699988,None,,,,,,,,,,,,,j,001,2021_Jul_05_1503,toilet,2021.1.3,99.94992519488179,
180,180,4,-4,1.15,,,,,1,0,1,0,1,43,99,41,,,,,,,,,,,,,,,,,,,,,,,578.6937877999153,None,578.6937877999153,None,578.193446099991,None,f,0.9462832000572234,578.6937877999153,None,,,,,,,,,,,,,j,001,2021_Jul_05_1503,toilet,2021.1.3,99.94992519488179,
0,0,-4,4,1.15,,,,,1,0,1,0,1,44,100,6,,,,,,,,,,,,,,,,,,,,,,,580.655209499877,None,580.655209499877,None,580.1547741999384,None,j,0.5048595999833196,580.655209499877,None,,,,,,,,,,,,,j,001,2021_Jul_05_1503,toilet,2021.1.3,99.94992519488179,
0,180,4,-4,0.94,,,,,1,0,1,0,1,45,101,22,,,,,,,,,,,,,,,,,,,,,,,582.1761866000015,None,582.1761866000015,None,581.6758039998822,None,j,0.5997226000763476,582.1761866000015,None,,,,,,,,,,,,,j,001,2021_Jul_05_1503,toilet,2021.1.3,99.94992519488179,
180,180,-4,4,1.03,,,,,1,0,1,0,1,46,102,32,,,,,,,,,,,,,,,,,,,,,,,583.7772271998692,None,583.7772271998692,None,583.2768911998719,None,f,0.5828740000724792,583.7772271998692,None,,,,,,,,,,,,,j,001,2021_Jul_05_1503,toilet,2021.1.3,99.94992519488179,
0,0,-4,4,0.94,,,,,1,0,1,0,1,47,103,1,,,,,,,,,,,,,,,,,,,,,,,585.3683088000398,None,585.3683088000398,None,584.8679700000212,None,f,0.5437648000661284,585.3683088000398,None,,,,,,,,,,,,,j,001,2021_Jul_05_1503,toilet,2021.1.3,99.94992519488179,
180,0,-4,4,1.03,,,,,1,0,1,0,1,48,104,46,,,,,,,,,,,,,,,,,,,,,,,586.9393726000562,None,586.9393726000562,None,586.4390282998793,None,j,0.4447216000407934,586.9393726000562,None,,,,,,,,,,,,,j,001,2021_Jul_05_1503,toilet,2021.1.3,99.94992519488179,
180,180,4,-4,1.06,,,,,1,0,1,0,1,49,105,40,,,,,,,,,,,,,,,,,,,,,,,588.4003620999865,None,588.4003620999865,None,587.9001029999927,None,f,0.42370569985359907,588.4003620999865,None,,,,,,,,,,,,,j,001,2021_Jul_05_1503,toilet,2021.1.3,99.94992519488179,
180,0,-4,4,1.15,,,,,1,0,1,0,1,50,106,48,,,,,,,,,,,,,,,,,,,,,,,589.8413430000655,None,589.8413430000655,None,589.3410837999545,None,j,0.4225570000708103,589.8413430000655,None,,,,,,,,,,,,,j,001,2021_Jul_05_1503,toilet,2021.1.3,99.94992519488179,
180,0,4,-4,1.03,,,,,1,0,1,0,1,51,107,53,,,,,,,,,,,,,,,,,,,,,,,591.2723069998901,None,591.2723069998901,None,590.77197110001,None,f,0.4636619999073446,591.2723069998901,None,,,,,,,,,,,,,j,001,2021_Jul_05_1503,toilet,2021.1.3,99.94992519488179,
0,180,-4,4,0.97,,,,,1,0,1,0,1,52,108,16,,,,,,,,,,,,,,,,,,,,,,,592.7433080000337,None,592.7433080000337,None,592.2429624998476,None,f,0.4487055998761207,592.7433080000337,None,,,,,,,,,,,,,j,001,2021_Jul_05_1503,toilet,2021.1.3,99.94992519488179,
180,0,4,-4,1.15,,,,,1,0,1,0,1,53,109,55,,,,,,,,,,,,,,,,,,,,,,,594.2043220999185,None,594.2043220999185,None,593.703954000026,None,f,0.42769329994916916,594.2043220999185,None,,,,,,,,,,,,,j,001,2021_Jul_05_1503,toilet,2021.1.3,99.94992519488179,
0,0,-4,4,1.03,,,,,1,0,1,0,1,54,110,4,,,,,,,,,,,,,,,,,,,,,,,595.6453543999232,None,595.6453543999232,None,595.1449728999287,None,j,0.458581899991259,595.6453543999232,None,,,,,,,,,,,,,j,001,2021_Jul_05_1503,toilet,2021.1.3,99.94992519488179,
0,180,4,-4,1.0,,,,,1,0,1,0,1,55,111,24,,,,,,,,,,,,,,,,,,,,,,,597.1063119999599,None,597.1063119999599,None,596.6160003000405,None,j,0.5015338999219239,597.1063119999599,None,,,,,,,,,,,,,j,001,2021_Jul_05_1503,toilet,2021.1.3,99.94992519488179,
,,,,,,,,,1,0,1,0,,,,,,,,,,,,,,,,,,,,,,,,,,,,,,,,,,,,,597.6166113999207,None,space,1.9113602000288665,597.6166113999207,None,,,,,,,j,001,2021_Jul_05_1503,toilet,2021.1.3,99.94992519488179,
180,180,4,-4,1.03,,,,,2,0,2,0,0,0,0,39,,,,,,,,,,,,,,,,,599.5479117999785,None,space,0.5882032001391053,599.5479117999785,None,601.1590108000673,None,601.1590108000673,None,600.6587336000521,None,f,0.4968961998820305,601.1590108000673,None,,,,,,,,,,,,,j,001,2021_Jul_05_1503,toilet,2021.1.3,99.94992519488179,
180,180,4,-4,1.15,,,,,2,0,2,0,0,1,1,41,,,,,,,,,,,,,,,,,,,,,,,602.6601131998468,None,602.6601131998468,None,602.159683200065,None,f,0.4358057000208646,602.6601131998468,None,,,,,,,,,,,,,j,001,2021_Jul_05_1503,toilet,2021.1.3,99.94992519488179,
0,0,4,-4,0.97,,,,,2,0,2,0,0,2,2,9,,,,,,,,,,,,,,,,,,,,,,,604.1010912000202,None,604.1010912000202,None,603.6007393999025,None,j,0.3867989999707788,604.1010912000202,None,,,,,,,,,,,,,j,001,2021_Jul_05_1503,toilet,2021.1.3,99.94992519488179,
180,180,4,-4,1.0,,,,,2,0,2,0,0,3,3,38,,,,,,,,,,,,,,,,,,,,,,,605.5019525999669,None,605.5019525999669,None,605.001624800032,None,f,0.39404619997367263,605.5019525999669,None,,,,,,,,,,,,,j,001,2021_Jul_05_1503,toilet,2021.1.3,99.94992519488179,
0,180,4,-4,1.03,,,,,2,0,2,0,0,4,4,25,,,,,,,,,,,,,,,,,,,,,,,606.9028990999795,None,606.9028990999795,None,606.4025603998452,None,f,0.4330933999735862,606.9028990999795,None,,,,,,,,,,,,,j,001,2021_Jul_05_1503,toilet,2021.1.3,99.94992519488179,
180,0,-4,4,1.03,,,,,2,0,2,0,0,5,5,46,,,,,,,,,,,,,,,,,,,,,,,608.3638867998961,None,608.3638867998961,None,607.8635507998988,None,j,0.34808539994992316,608.3638867998961,None,,,,,,,,,,,,,j,001,2021_Jul_05_1503,toilet,2021.1.3,99.94992519488179,
0,180,4,-4,1.0,,,,,2,0,2,0,0,6,6,24,,,,,,,,,,,,,,,,,,,,,,,609.7148911000695,None,609.7148911000695,None,609.2144809998572,None,j,0.5651593999937177,609.7148911000695,None,,,,,,,,,,,,,j,001,2021_Jul_05_1503,toilet,2021.1.3,99.94992519488179,
0,0,-4,4,1.15,,,,,2,0,2,0,0,7,7,6,,,,,,,,,,,,,,,,,,,,,,,611.3058839000296,None,611.3058839000296,None,610.8055260998663,None,j,0.4780398001894355,611.3058839000296,None,,,,,,,,,,,,,j,001,2021_Jul_05_1503,toilet,2021.1.3,99.94992519488179,
0,180,-4,4,1.03,,,,,2,0,2,0,0,8,8,18,,,,,,,,,,,,,,,,,,,,,,,612.7868858999573,None,612.7868858999573,None,612.2965528999921,None,f,0.40500999987125397,612.7868858999573,None,,,,,,,,,,,,,j,001,2021_Jul_05_1503,toilet,2021.1.3,99.94992519488179,
180,0,4,-4,0.97,,,,,2,0,2,0,0,9,9,51,,,,,,,,,,,,,,,,,,,,,,,614.1978404999245,None,614.1978404999245,None,613.6975010999013,None,f,0.46604100009426475,614.1978404999245,None,,,,,,,,,,,,,j,001,2021_Jul_05_1503,toilet,2021.1.3,99.94992519488179,
180,180,-4,4,0.94,,,,,2,0,2,0,0,10,10,29,,,,,,,,,,,,,,,,,,,,,,,615.6688351000194,None,615.6688351000194,None,615.168502900051,None,f,0.5472947999369353,615.6688351000194,None,,,,,,,,,,,,,j,001,2021_Jul_05_1503,toilet,2021.1.3,99.94992519488179,
0,0,4,-4,1.0,,,,,2,0,2,0,0,11,11,10,,,,,,,,,,,,,,,,,,,,,,,617.2299931000452,None,617.2299931000452,None,616.7295541998465,None,j,0.5220820000395179,617.2299931000452,None,,,,,,,,,,,,,j,001,2021_Jul_05_1503,toilet,2021.1.3,99.94992519488179,
180,180,-4,4,1.03,,,,,2,0,2,0,0,12,12,32,,,,,,,,,,,,,,,,,,,,,,,618.7609335999005,None,618.7609335999005,None,618.2606845998671,None,j,2.6229322999715805,618.7609335999005,None,,,,,,,,,,,,,j,001,2021_Jul_05_1503,toilet,2021.1.3,99.94992519488179,
180,0,4,-4,1.03,,,,,2,0,2,0,0,13,13,53,,,,,,,,,,,,,,,,,,,,,,,622.3833995999303,None,622.3833995999303,None,621.8830506999511,None,f,0.40858189994469285,622.3833995999303,None,,,,,,,,,,,,,j,001,2021_Jul_05_1503,toilet,2021.1.3,99.94992519488179,
0,0,4,-4,1.03,,,,,2,0,2,0,0,14,14,11,,,,,,,,,,,,,,,,,,,,,,,623.8043517998885,None,623.8043517998885,None,623.3040096999612,None,f,0.3315752998460084,623.8043517998885,None,,,,,,,,,,,,,j,001,2021_Jul_05_1503,toilet,2021.1.3,99.94992519488179,
0,180,4,-4,1.15,,,,,2,0,2,0,0,15,15,27,,,,,,,,,,,,,,,,,,,,,,,625.145260799909,None,625.145260799909,None,624.645023399964,None,f,0.4627914000302553,625.145260799909,None,,,,,,,,,,,,,j,001,2021_Jul_05_1503,toilet,2021.1.3,99.94992519488179,
0,0,4,-4,1.06,,,,,2,0,2,0,0,16,16,12,,,,,,,,,,,,,,,,,,,,,,,626.6262691000011,None,626.6262691000011,None,626.1260130999144,None,f,0.37370489980094135,626.6262691000011,None,,,,,,,,,,,,,j,001,2021_Jul_05_1503,toilet,2021.1.3,99.94992519488179,
0,180,4,-4,1.06,,,,,2,0,2,0,0,17,17,26,,,,,,,,,,,,,,,,,,,,,,,628.0071932000574,None,628.0071932000574,None,627.5068615998607,None,f,0.8008702001534402,628.0071932000574,None,,,,,,,,,,,,,j,001,2021_Jul_05_1503,toilet,2021.1.3,99.94992519488179,
180,0,-4,4,0.85,,,,,2,0,2,0,0,18,18,42,,,,,,,,,,,,,,,,,,,,,,,629.8084155998658,None,629.8084155998658,None,629.3080806999933,None,f,0.3915053999517113,629.8084155998658,None,,,,,,,,,,,,,j,001,2021_Jul_05_1503,toilet,2021.1.3,99.94992519488179,
0,180,-4,4,0.97,,,,,2,0,2,0,0,19,19,16,,,,,,,,,,,,,,,,,,,,,,,631.1993606998585,None,631.1993606998585,None,630.7090288000181,None,f,0.5365913000423461,631.1993606998585,None,,,,,,,,,,,,,j,001,2021_Jul_05_1503,toilet,2021.1.3,99.94992519488179,
0,180,4,-4,0.85,,,,,2,0,2,0,0,20,20,21,,,,,,,,,,,,,,,,,,,,,,,632.740506199887,None,632.740506199887,None,632.2401578999124,None,j,0.4513581001665443,632.740506199887,None,,,,,,,,,,,,,j,001,2021_Jul_05_1503,toilet,2021.1.3,99.94992519488179,
180,0,-4,4,1.0,,,,,2,0,2,0,0,21,21,45,,,,,,,,,,,,,,,,,,,,,,,634.1913842998911,None,634.1913842998911,None,633.6911203998607,None,j,0.6484790998511016,634.1913842998911,None,,,,,,,,,,,,,j,001,2021_Jul_05_1503,toilet,2021.1.3,99.94992519488179,
0,0,-4,4,0.97,,,,,2,0,2,0,0,22,22,2,,,,,,,,,,,,,,,,,,,,,,,635.8425078999717,None,635.8425078999717,None,635.3421652999241,None,f,0.421375900041312,635.8425078999717,None,,,,,,,,,,,,,j,001,2021_Jul_05_1503,toilet,2021.1.3,99.94992519488179,
0,0,-4,4,0.85,,,,,2,0,2,0,0,23,23,0,,,,,,,,,,,,,,,,,,,,,,,637.2634701998904,None,637.2634701998904,None,636.7631315998733,None,f,0.4406432998366654,637.2634701998904,None,,,,,,,,,,,,,j,001,2021_Jul_05_1503,toilet,2021.1.3,99.94992519488179,
180,0,4,-4,1.0,,,,,2,0,2,0,0,24,24,52,,,,,,,,,,,,,,,,,,,,,,,638.7144515998662,None,638.7144515998662,None,638.2141096999403,None,f,0.44555549998767674,638.7144515998662,None,,,,,,,,,,,,,j,001,2021_Jul_05_1503,toilet,2021.1.3,99.94992519488179,
180,180,-4,4,0.85,,,,,2,0,2,0,0,25,25,28,,,,,,,,,,,,,,,,,,,,,,,640.1855460999068,None,640.1855460999068,None,639.6851124998648,None,f,0.4465475999750197,640.1855460999068,None,,,,,,,,,,,,,j,001,2021_Jul_05_1503,toilet,2021.1.3,99.94992519488179,
0,0,-4,4,1.06,,,,,2,0,2,0,0,26,26,5,,,,,,,,,,,,,,,,,,,,,,,641.6464384000283,None,641.6464384000283,None,641.14613369992,None,j,0.34539099992252886,641.6464384000283,None,,,,,,,,,,,,,j,001,2021_Jul_05_1503,toilet,2021.1.3,99.94992519488179,
0,180,-4,4,0.94,,,,,2,0,2,0,0,27,27,15,,,,,,,,,,,,,,,,,,,,,,,642.9973535998724,None,642.9973535998724,None,642.4970120999496,None,j,0.33851879998110235,642.9973535998724,None,,,,,,,,,,,,,j,001,2021_Jul_05_1503,toilet,2021.1.3,99.94992519488179,
180,180,4,-4,0.97,,,,,2,0,2,0,0,28,28,37,,,,,,,,,,,,,,,,,,,,,,,644.3382615998853,None,644.3382615998853,None,643.8379210999701,None,j,0.7737644000444561,644.3382615998853,None,,,,,,,,,,,,,j,001,2021_Jul_05_1503,toilet,2021.1.3,99.94992519488179,
180,180,4,-4,1.06,,,,,2,0,2,0,0,29,29,40,,,,,,,,,,,,,,,,,,,,,,,646.1294771998655,None,646.1294771998655,None,645.6291352999397,None,f,0.4225799001287669,646.1294771998655,None,,,,,,,,,,,,,j,001,2021_Jul_05_1503,toilet,2021.1.3,99.94992519488179,
180,0,4,-4,1.06,,,,,2,0,2,0,0,30,30,54,,,,,,,,,,,,,,,,,,,,,,,647.5605405999813,None,647.5605405999813,None,647.060198900057,None,f,0.7354614001233131,647.5605405999813,None,,,,,,,,,,,,,j,001,2021_Jul_05_1503,toilet,2021.1.3,99.94992519488179,
180,0,-4,4,1.15,,,,,2,0,2,0,0,31,31,48,,,,,,,,,,,,,,,,,,,,,,,649.3116295000073,None,649.3116295000073,None,648.8112908999901,None,j,0.4242374999448657,649.3116295000073,None,,,,,,,,,,,,,j,001,2021_Jul_05_1503,toilet,2021.1.3,99.94992519488179,
180,0,4,-4,1.15,,,,,2,0,2,0,0,32,32,55,,,,,,,,,,,,,,,,,,,,,,,650.7425985999871,None,650.7425985999871,None,650.2422569999471,None,f,0.433304299833253,650.7425985999871,None,,,,,,,,,,,,,j,001,2021_Jul_05_1503,toilet,2021.1.3,99.94992519488179,
180,180,-4,4,0.97,,,,,2,0,2,0,0,33,33,30,,,,,,,,,,,,,,,,,,,,,,,652.1835745999124,None,652.1835745999124,None,651.68323710002,None,j,0.7363605001010001,652.1835745999124,None,,,,,,,,,,,,,j,001,2021_Jul_05_1503,toilet,2021.1.3,99.94992519488179,
180,0,4,-4,0.85,,,,,2,0,2,0,0,34,34,49,,,,,,,,,,,,,,,,,,,,,,,653.9347800000105,None,653.9347800000105,None,653.4344219998457,None,j,0.47329190000891685,653.9347800000105,None,,,,,,,,,,,,,j,001,2021_Jul_05_1503,toilet,2021.1.3,99.94992519488179,
180,180,4,-4,0.94,,,,,2,0,2,0,0,35,35,36,,,,,,,,,,,,,,,,,,,,,,,655.4258715000469,None,655.4258715000469,None,654.9255202999339,None,j,0.6621864000335336,655.4258715000469,None,,,,,,,,,,,,,j,001,2021_Jul_05_1503,toilet,2021.1.3,99.94992519488179,
0,180,4,-4,0.97,,,,,2,0,2,0,0,36,36,23,,,,,,,,,,,,,,,,,,,,,,,657.0969060999341,None,657.0969060999341,None,656.5965700000525,None,j,1.454933499917388,657.0969060999341,None,,,,,,,,,,,,,j,001,2021_Jul_05_1503,toilet,2021.1.3,99.94992519488179,
0,0,4,-4,1.15,,,,,2,0,2,0,0,37,37,13,,,,,,,,,,,,,,,,,,,,,,,659.5585721998941,None,659.5585721998941,None,659.0582342999987,None,f,0.4974739998579025,659.5585721998941,None,,,,,,,,,,,,,j,001,2021_Jul_05_1503,toilet,2021.1.3,99.94992519488179,
0,0,-4,4,1.03,,,,,2,0,2,0,0,38,38,4,,,,,,,,,,,,,,,,,,,,,,,661.0695958998986,None,661.0695958998986,None,660.5692561999895,None,j,0.5863838000223041,661.0695958998986,None,,,,,,,,,,,,,j,001,2021_Jul_05_1503,toilet,2021.1.3,99.94992519488179,
180,0,-4,4,0.97,,,,,2,0,2,0,0,39,39,44,,,,,,,,,,,,,,,,,,,,,,,662.6806905998383,None,662.6806905998383,None,662.1804329999723,None,j,1.0072363999206573,662.6806905998383,None,,,,,,,,,,,,,j,001,2021_Jul_05_1503,toilet,2021.1.3,99.94992519488179,
0,180,-4,4,1.06,,,,,2,0,2,0,0,40,40,19,,,,,,,,,,,,,,,,,,,,,,,664.6920509999618,None,664.6920509999618,None,664.1917129000649,None,f,0.6438664998859167,664.6920509999618,None,,,,,,,,,,,,,j,001,2021_Jul_05_1503,toilet,2021.1.3,99.94992519488179,
180,180,-4,4,1.15,,,,,2,0,2,0,0,41,41,34,,,,,,,,,,,,,,,,,,,,,,,666.3431696998887,None,666.3431696998887,None,665.84283089987,None,j,0.44881070009432733,666.3431696998887,None,,,,,,,,,,,,,j,001,2021_Jul_05_1503,toilet,2021.1.3,99.94992519488179,
180,180,4,-4,0.85,,,,,2,0,2,0,0,42,42,35,,,,,,,,,,,,,,,,,,,,,,,667.8041554999072,None,667.8041554999072,None,667.3038224999327,None,j,0.3797529002185911,667.8041554999072,None,,,,,,,,,,,,,j,001,2021_Jul_05_1503,toilet,2021.1.3,99.94992519488179,
180,180,-4,4,1.0,,,,,2,0,2,0,0,43,43,31,,,,,,,,,,,,,,,,,,,,,,,669.1951929000206,None,669.1951929000206,None,668.6947898999788,None,f,0.4607948998454958,669.1951929000206,None,,,,,,,,,,,,,j,001,2021_Jul_05_1503,toilet,2021.1.3,99.94992519488179,
180,0,-4,4,1.06,,,,,2,0,2,0,0,44,44,47,,,,,,,,,,,,,,,,,,,,,,,670.6661165000405,None,670.6661165000405,None,670.1657962999307,None,j,0.39764910005033016,670.6661165000405,None,,,,,,,,,,,,,j,001,2021_Jul_05_1503,toilet,2021.1.3,99.94992519488179,
0,180,-4,4,1.15,,,,,2,0,2,0,0,45,45,20,,,,,,,,,,,,,,,,,,,,,,,672.0670515999664,None,672.0670515999664,None,671.5667081999127,None,j,0.38874119985848665,672.0670515999664,None,,,,,,,,,,,,,j,001,2021_Jul_05_1503,toilet,2021.1.3,99.94992519488179,
0,180,-4,4,0.85,,,,,2,0,2,0,0,46,46,14,,,,,,,,,,,,,,,,,,,,,,,673.4579952999484,None,673.4579952999484,None,672.9576487999875,None,f,0.4378065001219511,673.4579952999484,None,,,,,,,,,,,,,j,001,2021_Jul_05_1503,toilet,2021.1.3,99.94992519488179,
180,180,-4,4,1.06,,,,,2,0,2,0,0,47,47,33,,,,,,,,,,,,,,,,,,,,,,,674.8989643000532,None,674.8989643000532,None,674.398626399925,None,j,0.5170636000111699,674.8989643000532,None,,,,,,,,,,,,,j,001,2021_Jul_05_1503,toilet,2021.1.3,99.94992519488179,
0,180,4,-4,0.94,,,,,2,0,2,0,0,48,48,22,,,,,,,,,,,,,,,,,,,,,,,676.43007760006,None,676.43007760006,None,675.9296619999222,None,j,0.4259426000062376,676.43007760006,None,,,,,,,,,,,,,j,001,2021_Jul_05_1503,toilet,2021.1.3,99.94992519488179,
0,0,4,-4,0.94,,,,,2,0,2,0,0,49,49,8,,,,,,,,,,,,,,,,,,,,,,,677.8710171000566,None,677.8710171000566,None,677.3706769999117,None,j,0.4887991000432521,677.8710171000566,None,,,,,,,,,,,,,j,001,2021_Jul_05_1503,toilet,2021.1.3,99.94992519488179,
0,0,-4,4,1.0,,,,,2,0,2,0,0,50,50,3,,,,,,,,,,,,,,,,,,,,,,,679.3619909998961,None,679.3619909998961,None,678.8616507998668,None,j,0.5978272000793368,679.3619909998961,None,,,,,,,,,,,,,j,001,2021_Jul_05_1503,toilet,2021.1.3,99.94992519488179,
180,0,-4,4,0.94,,,,,2,0,2,0,0,51,51,43,,,,,,,,,,,,,,,,,,,,,,,680.9630748999771,None,680.9630748999771,None,680.4627332999371,None,f,0.4528359998948872,680.9630748999771,None,,,,,,,,,,,,,j,001,2021_Jul_05_1503,toilet,2021.1.3,99.94992519488179,
180,0,4,-4,0.94,,,,,2,0,2,0,0,52,52,50,,,,,,,,,,,,,,,,,,,,,,,682.4340687999502,None,682.4340687999502,None,681.9337315999437,None,j,0.3898303001187742,682.4340687999502,None,,,,,,,,,,,,,j,001,2021_Jul_05_1503,toilet,2021.1.3,99.94992519488179,
0,0,-4,4,0.94,,,,,2,0,2,0,0,53,53,1,,,,,,,,,,,,,,,,,,,,,,,683.8350209998898,None,683.8350209998898,None,683.3347835999448,None,f,0.5250107999891043,683.8350209998898,None,,,,,,,,,,,,,j,001,2021_Jul_05_1503,toilet,2021.1.3,99.94992519488179,
0,180,-4,4,1.0,,,,,2,0,2,0,0,54,54,17,,,,,,,,,,,,,,,,,,,,,,,685.3761064999271,None,685.3761064999271,None,684.8757336998824,None,f,0.5038236998952925,685.3761064999271,None,,,,,,,,,,,,,j,001,2021_Jul_05_1503,toilet,2021.1.3,99.94992519488179,
0,0,4,-4,0.85,,,,,2,0,2,0,0,55,55,7,,,,,,,,,,,,,,,,,,,,,,,686.8870899998583,None,686.8870899998583,None,686.3867682998534,None,j,0.44873489998281,686.8870899998583,None,,,,,,,,,,,,,j,001,2021_Jul_05_1503,toilet,2021.1.3,99.94992519488179,
180,180,4,-4,1.03,,,,,2,0,2,0,1,0,56,39,,,,,,,,,,,,,,,,,,,,,,,688.3380742999725,None,688.3380742999725,None,687.8377350999508,None,j,0.34186149993911386,688.3380742999725,None,,,,,,,,,,,,,j,001,2021_Jul_05_1503,toilet,2021.1.3,99.94992519488179,
0,180,-4,4,0.94,,,,,2,0,2,0,1,1,57,15,,,,,,,,,,,,,,,,,,,,,,,689.6889853000175,None,689.6889853000175,None,689.1886479000095,None,f,0.6390121998265386,689.6889853000175,None,,,,,,,,,,,,,j,001,2021_Jul_05_1503,toilet,2021.1.3,99.94992519488179,
180,180,4,-4,0.94,,,,,2,0,2,0,1,2,58,36,,,,,,,,,,,,,,,,,,,,,,,691.3401840999722,None,691.3401840999722,None,690.8397706998512,None,j,0.6196395000442863,691.3401840999722,None,,,,,,,,,,,,,j,001,2021_Jul_05_1503,toilet,2021.1.3,99.94992519488179,
0,0,-4,4,1.03,,,,,2,0,2,0,1,3,59,4,,,,,,,,,,,,,,,,,,,,,,,692.9612277999986,None,692.9612277999986,None,692.4609572000336,None,f,0.8385730998124927,692.9612277999986,None,,,,,,,,,,,,,j,001,2021_Jul_05_1503,toilet,2021.1.3,99.94992519488179,
180,180,-4,4,0.97,,,,,2,0,2,0,1,4,60,30,,,,,,,,,,,,,,,,,,,,,,,694.8024526999798,None,694.8024526999798,None,694.302118799882,None,f,0.5973346000537276,694.8024526999798,None,,,,,,,,,,,,,j,001,2021_Jul_05_1503,toilet,2021.1.3,99.94992519488179,
180,0,-4,4,0.94,,,,,2,0,2,0,1,5,61,43,,,,,,,,,,,,,,,,,,,,,,,696.4035322000273,None,696.4035322000273,None,695.9031978999265,None,f,0.9483536002226174,696.4035322000273,None,,,,,,,,,,,,,j,001,2021_Jul_05_1503,toilet,2021.1.3,99.94992519488179,
180,180,4,-4,0.85,,,,,2,0,2,0,1,6,62,35,,,,,,,,,,,,,,,,,,,,,,,698.3648617998697,None,698.3648617998697,None,697.8646050000098,None,j,0.5869408000726253,698.3648617998697,None,,,,,,,,,,,,,j,001,2021_Jul_05_1503,toilet,2021.1.3,99.94992519488179,
0,0,4,-4,1.15,,,,,2,0,2,0,1,7,63,13,,,,,,,,,,,,,,,,,,,,,,,699.9659865999129,None,699.9659865999129,None,699.4656823000405,None,f,0.6338886001612991,699.9659865999129,None,,,,,,,,,,,,,j,001,2021_Jul_05_1503,toilet,2021.1.3,99.94992519488179,
0,180,4,-4,1.15,,,,,2,0,2,0,1,8,64,27,,,,,,,,,,,,,,,,,,,,,,,701.6070644999854,None,701.6070644999854,None,701.1067222999409,None,f,0.640733600128442,701.6070644999854,None,,,,,,,,,,,,,j,001,2021_Jul_05_1503,toilet,2021.1.3,99.94992519488179,
180,180,4,-4,1.0,,,,,2,0,2,0,1,9,65,38,,,,,,,,,,,,,,,,,,,,,,,703.248168299906,None,703.248168299906,None,702.7478336999193,None,f,1.1757690000813454,703.248168299906,None,,,,,,,,,,,,,j,001,2021_Jul_05_1503,toilet,2021.1.3,99.94992519488179,
0,0,-4,4,1.0,,,,,2,0,2,0,1,10,66,3,,,,,,,,,,,,,,,,,,,,,,,705.4396855998784,None,705.4396855998784,None,704.9393225999083,None,f,0.4722483998630196,705.4396855998784,None,,,,,,,,,,,,,j,001,2021_Jul_05_1503,toilet,2021.1.3,99.94992519488179,
180,0,4,-4,1.06,,,,,2,0,2,0,1,11,67,54,,,,,,,,,,,,,,,,,,,,,,,706.9206666999962,None,706.9206666999962,None,706.4203973999247,None,f,0.591206599958241,706.9206666999962,None,,,,,,,,,,,,,j,001,2021_Jul_05_1503,toilet,2021.1.3,99.94992519488179,
0,180,4,-4,0.85,,,,,2,0,2,0,1,12,68,21,,,,,,,,,,,,,,,,,,,,,,,708.5217458000407,None,708.5217458000407,None,708.0214052000083,None,j,0.5260695999022573,708.5217458000407,None,,,,,,,,,,,,,j,001,2021_Jul_05_1503,toilet,2021.1.3,99.94992519488179,
180,180,-4,4,1.0,,,,,2,0,2,0,1,13,69,31,,,,,,,,,,,,,,,,,,,,,,,710.0527788999025,None,710.0527788999025,None,709.5524408000056,None,f,0.49916019989177585,710.0527788999025,None,,,,,,,,,,,,,j,001,2021_Jul_05_1503,toilet,2021.1.3,99.94992519488179,
180,0,-4,4,0.85,,,,,2,0,2,0,1,14,70,42,,,,,,,,,,,,,,,,,,,,,,,711.5638031999115,None,711.5638031999115,None,711.0634633000009,None,f,0.5242441000882536,711.5638031999115,None,,,,,,,,,,,,,j,001,2021_Jul_05_1503,toilet,2021.1.3,99.94992519488179,
0,0,4,-4,0.85,,,,,2,0,2,0,1,15,71,7,,,,,,,,,,,,,,,,,,,,,,,713.1149434999097,None,713.1149434999097,None,712.6145160999149,None,j,0.4769306001253426,713.1149434999097,None,,,,,,,,,,,,,j,001,2021_Jul_05_1503,toilet,2021.1.3,99.94992519488179,
180,0,4,-4,1.03,,,,,2,0,2,0,1,16,72,53,,,,,,,,,,,,,,,,,,,,,,,714.5959417000413,None,714.5959417000413,None,714.0956069000531,None,f,0.787779500009492,714.5959417000413,None,,,,,,,,,,,,,j,001,2021_Jul_05_1503,toilet,2021.1.3,99.94992519488179,
180,180,-4,4,0.85,,,,,2,0,2,0,1,17,73,28,,,,,,,,,,,,,,,,,,,,,,,716.3870736998506,None,716.3870736998506,None,715.8867339000572,None,f,0.5489323998335749,716.3870736998506,None,,,,,,,,,,,,,j,001,2021_Jul_05_1503,toilet,2021.1.3,99.94992519488179,
0,0,-4,4,0.97,,,,,2,0,2,0,1,18,74,2,,,,,,,,,,,,,,,,,,,,,,,717.9481301999185,None,717.9481301999185,None,717.4477931000292,None,j,0.3477858998812735,717.9481301999185,None,,,,,,,,,,,,,j,001,2021_Jul_05_1503,toilet,2021.1.3,99.94992519488179,
180,0,-4,4,1.15,,,,,2,0,2,0,1,19,75,48,,,,,,,,,,,,,,,,,,,,,,,719.3090510000475,None,719.3090510000475,None,718.808714899933,None,j,0.394677700009197,719.3090510000475,None,,,,,,,,,,,,,j,001,2021_Jul_05_1503,toilet,2021.1.3,99.94992519488179,
0,0,4,-4,0.94,,,,,2,0,2,0,1,20,76,8,,,,,,,,,,,,,,,,,,,,,,,720.7100943999831,None,720.7100943999831,None,720.2096619000658,None,j,0.4177021000068635,720.7100943999831,None,,,,,,,,,,,,,j,001,2021_Jul_05_1503,toilet,2021.1.3,99.94992519488179,
0,180,4,-4,1.06,,,,,2,0,2,0,1,21,77,26,,,,,,,,,,,,,,,,,,,,,,,722.1410075000022,None,722.1410075000022,None,721.6407323000021,None,f,0.7147722002118826,722.1410075000022,None,,,,,,,,,,,,,j,001,2021_Jul_05_1503,toilet,2021.1.3,99.94992519488179,
0,180,4,-4,1.03,,,,,2,0,2,0,1,22,78,25,,,,,,,,,,,,,,,,,,,,,,,723.8621366999578,None,723.8621366999578,None,723.3617978999391,None,j,0.3376859000418335,723.8621366999578,None,,,,,,,,,,,,,j,001,2021_Jul_05_1503,toilet,2021.1.3,99.94992519488179,
0,0,-4,4,1.06,,,,,2,0,2,0,1,23,79,5,,,,,,,,,,,,,,,,,,,,,,,725.2030434999615,None,725.2030434999615,None,724.702711999882,None,j,0.3569529000669718,725.2030434999615,None,,,,,,,,,,,,,j,001,2021_Jul_05_1503,toilet,2021.1.3,99.94992519488179,
0,180,-4,4,1.0,,,,,2,0,2,0,1,24,80,17,,,,,,,,,,,,,,,,,,,,,,,726.5839815998916,None,726.5839815998916,None,726.0836413998622,None,j,1.34391999989748,726.5839815998916,None,,,,,,,,,,,,,j,001,2021_Jul_05_1503,toilet,2021.1.3,99.94992519488179,
180,180,-4,4,1.03,,,,,2,0,2,0,1,25,81,32,,,,,,,,,,,,,,,,,,,,,,,728.9556179998908,None,728.9556179998908,None,728.4553409998771,None,f,0.6523335000965744,728.9556179998908,None,,,,,,,,,,,,,j,001,2021_Jul_05_1503,toilet,2021.1.3,99.94992519488179,
0,0,4,-4,1.0,,,,,2,0,2,0,1,26,82,10,,,,,,,,,,,,,,,,,,,,,,,730.6267234999686,None,730.6267234999686,None,730.1263788999058,None,j,3.26936629996635,730.6267234999686,None,,,,,,,,,,,,,j,001,2021_Jul_05_1503,toilet,2021.1.3,99.94992519488179,
0,180,4,-4,0.94,,,,,2,0,2,0,1,27,83,22,,,,,,,,,,,,,,,,,,,,,,,734.9096237998456,None,734.9096237998456,None,734.4092850000598,None,j,0.6501881000585854,734.9096237998456,None,,,,,,,,,,,,,j,001,2021_Jul_05_1503,toilet,2021.1.3,99.94992519488179,
180,180,4,-4,1.15,,,,,2,0,2,0,1,28,84,41,,,,,,,,,,,,,,,,,,,,,,,736.5708306999877,None,736.5708306999877,None,736.070510599995,None,f,0.7008907000999898,736.5708306999877,None,,,,,,,,,,,,,j,001,2021_Jul_05_1503,toilet,2021.1.3,99.94992519488179,
180,0,4,-4,1.0,,,,,2,0,2,0,1,29,85,52,,,,,,,,,,,,,,,,,,,,,,,738.271900099935,None,738.271900099935,None,737.7715578998905,None,f,0.6960073001682758,738.271900099935,None,,,,,,,,,,,,,j,001,2021_Jul_05_1503,toilet,2021.1.3,99.94992519488179,
0,0,-4,4,0.85,,,,,2,0,2,0,1,30,86,0,,,,,,,,,,,,,,,,,,,,,,,739.9830914000049,None,739.9830914000049,None,739.4927262000274,None,f,0.4726752999704331,739.9830914000049,None,,,,,,,,,,,,,j,001,2021_Jul_05_1503,toilet,2021.1.3,99.94992519488179,
180,0,-4,4,1.0,,,,,2,0,2,0,1,31,87,45,,,,,,,,,,,,,,,,,,,,,,,741.4640631000511,None,741.4640631000511,None,740.9637217000127,None,j,0.5917966000270098,741.4640631000511,None,,,,,,,,,,,,,j,001,2021_Jul_05_1503,toilet,2021.1.3,99.94992519488179,
0,180,-4,4,1.15,,,,,2,0,2,0,1,32,88,20,,,,,,,,,,,,,,,,,,,,,,,743.0651439998765,None,743.0651439998765,None,742.564897299977,None,j,0.5427566999569535,743.0651439998765,None,,,,,,,,,,,,,j,001,2021_Jul_05_1503,toilet,2021.1.3,99.94992519488179,
180,0,-4,4,1.03,,,,,2,0,2,0,1,33,89,46,,,,,,,,,,,,,,,,,,,,,,,744.6262017998379,None,744.6262017998379,None,744.1259047000203,None,j,0.9336663000285625,744.6262017998379,None,,,,,,,,,,,,,j,001,2021_Jul_05_1503,toilet,2021.1.3,99.94992519488179,
0,0,-4,4,1.15,,,,,2,0,2,0,1,34,90,6,,,,,,,,,,,,,,,,,,,,,,,746.5675238000695,None,746.5675238000695,None,746.067183499923,None,j,0.4003716001752764,746.5675238000695,None,,,,,,,,,,,,,j,001,2021_Jul_05_1503,toilet,2021.1.3,99.94992519488179,
180,0,4,-4,0.85,,,,,2,0,2,0,1,35,91,49,,,,,,,,,,,,,,,,,,,,,,,747.978471999988,None,747.978471999988,None,747.4781369999982,None,j,0.4453561999835074,747.978471999988,None,,,,,,,,,,,,,j,001,2021_Jul_05_1503,toilet,2021.1.3,99.94992519488179,
0,0,4,-4,1.03,,,,,2,0,2,0,1,36,92,11,,,,,,,,,,,,,,,,,,,,,,,749.4394703998696,None,749.4394703998696,None,748.939125899924,None,f,0.6963945999741554,749.4394703998696,None,,,,,,,,,,,,,j,001,2021_Jul_05_1503,toilet,2021.1.3,99.94992519488179,
0,180,-4,4,1.03,,,,,2,0,2,0,1,37,93,18,,,,,,,,,,,,,,,,,,,,,,,751.1506997998804,None,751.1506997998804,None,750.6503752998542,None,f,0.5690321000292897,751.1506997998804,None,,,,,,,,,,,,,j,001,2021_Jul_05_1503,toilet,2021.1.3,99.94992519488179,
0,0,4,-4,1.06,,,,,2,0,2,0,1,38,94,12,,,,,,,,,,,,,,,,,,,,,,,752.7316950999666,None,752.7316950999666,None,752.2313548000529,None,j,0.3801065001171082,752.7316950999666,None,,,,,,,,,,,,,j,001,2021_Jul_05_1503,toilet,2021.1.3,99.94992519488179,
0,180,4,-4,0.97,,,,,2,0,2,0,1,39,95,23,,,,,,,,,,,,,,,,,,,,,,,754.1126339000184,None,754.1126339000184,None,753.6122999999207,None,j,0.4712600000202656,754.1126339000184,None,,,,,,,,,,,,,j,001,2021_Jul_05_1503,toilet,2021.1.3,99.94992519488179,
180,180,4,-4,0.97,,,,,2,0,2,0,1,40,96,37,,,,,,,,,,,,,,,,,,,,,,,755.5936398999766,None,755.5936398999766,None,755.0932938000187,None,j,0.6381159999873489,755.5936398999766,None,,,,,,,,,,,,,j,001,2021_Jul_05_1503,toilet,2021.1.3,99.94992519488179,
0,0,4,-4,0.97,,,,,2,0,2,0,1,41,97,9,,,,,,,,,,,,,,,,,,,,,,,757.2448400999419,None,757.2448400999419,None,756.7444143998437,None,f,0.41088419989682734,757.2448400999419,None,,,,,,,,,,,,,j,001,2021_Jul_05_1503,toilet,2021.1.3,99.94992519488179,
180,0,4,-4,1.15,,,,,2,0,2,0,1,42,98,55,,,,,,,,,,,,,,,,,,,,,,,758.6558089000173,None,758.6558089000173,None,758.1554547999986,None,f,0.47194580012001097,758.6558089000173,None,,,,,,,,,,,,,j,001,2021_Jul_05_1503,toilet,2021.1.3,99.94992519488179,
0,0,-4,4,0.94,,,,,2,0,2,0,1,43,99,1,,,,,,,,,,,,,,,,,,,,,,,760.1367154000327,None,760.1367154000327,None,759.6363726998679,None,f,1.1189705999568105,760.1367154000327,None,,,,,,,,,,,,,j,001,2021_Jul_05_1503,toilet,2021.1.3,99.94992519488179,
0,180,-4,4,0.85,,,,,2,0,2,0,1,44,100,14,,,,,,,,,,,,,,,,,,,,,,,762.2581475998741,None,762.2581475998741,None,761.7578109998722,None,f,0.7257882999256253,762.2581475998741,None,,,,,,,,,,,,,j,001,2021_Jul_05_1503,toilet,2021.1.3,99.94992519488179,
180,180,-4,4,1.15,,,,,2,0,2,0,1,45,101,34,,,,,,,,,,,,,,,,,,,,,,,763.9993244998623,None,763.9993244998623,None,763.498988899868,None,j,0.5204893001355231,763.9993244998623,None,,,,,,,,,,,,,j,001,2021_Jul_05_1503,toilet,2021.1.3,99.94992519488179,
0,180,-4,4,1.06,,,,,2,0,2,0,1,46,102,19,,,,,,,,,,,,,,,,,,,,,,,765.5303680999205,None,765.5303680999205,None,765.0301057000179,None,j,0.6694841000717133,765.5303680999205,None,,,,,,,,,,,,,j,001,2021_Jul_05_1503,toilet,2021.1.3,99.94992519488179,
180,0,-4,4,1.06,,,,,2,0,2,0,1,47,103,47,,,,,,,,,,,,,,,,,,,,,,,767.2115044000093,None,767.2115044000093,None,766.7111620998476,None,j,0.49226849991828203,767.2115044000093,None,,,,,,,,,,,,,j,001,2021_Jul_05_1503,toilet,2021.1.3,99.94992519488179,
180,180,-4,4,0.94,,,,,2,0,2,0,1,48,104,29,,,,,,,,,,,,,,,,,,,,,,,768.7125227998476,None,768.7125227998476,None,768.2121899998747,None,f,0.4793593001086265,768.7125227998476,None,,,,,,,,,,,,,j,001,2021_Jul_05_1503,toilet,2021.1.3,99.94992519488179,
180,180,-4,4,1.06,,,,,2,0,2,0,1,49,105,33,,,,,,,,,,,,,,,,,,,,,,,770.2035336999688,None,770.2035336999688,None,769.7031928000506,None,j,0.46036759996786714,770.2035336999688,None,,,,,,,,,,,,,j,001,2021_Jul_05_1503,toilet,2021.1.3,99.94992519488179,
180,0,-4,4,0.97,,,,,2,0,2,0,1,50,106,44,,,,,,,,,,,,,,,,,,,,,,,771.6745300998446,None,771.6745300998446,None,771.1741923000664,None,f,0.8612567998934537,771.6745300998446,None,,,,,,,,,,,,,j,001,2021_Jul_05_1503,toilet,2021.1.3,99.94992519488179,
0,180,4,-4,1.0,,,,,2,0,2,0,1,51,107,24,,,,,,,,,,,,,,,,,,,,,,,773.5458797998726,None,773.5458797998726,None,773.045457799919,None,j,0.34988009999506176,773.5458797998726,None,,,,,,,,,,,,,j,001,2021_Jul_05_1503,toilet,2021.1.3,99.94992519488179,
0,180,-4,4,0.97,,,,,2,0,2,0,1,52,108,16,,,,,,,,,,,,,,,,,,,,,,,774.906722499989,None,774.906722499989,None,774.4063774999231,None,f,0.5570137000177056,774.906722499989,None,,,,,,,,,,,,,j,001,2021_Jul_05_1503,toilet,2021.1.3,99.94992519488179,
180,180,4,-4,1.06,,,,,2,0,2,0,1,53,109,40,,,,,,,,,,,,,,,,,,,,,,,776.4677772999275,None,776.4677772999275,None,775.9674321999773,None,f,0.6281014999840409,776.4677772999275,None,,,,,,,,,,,,,j,001,2021_Jul_05_1503,toilet,2021.1.3,99.94992519488179,
180,0,4,-4,0.97,,,,,2,0,2,0,1,54,110,51,,,,,,,,,,,,,,,,,,,,,,,778.0988928000443,None,778.0988928000443,None,777.598539999919,None,j,0.4529946001712233,778.0988928000443,None,,,,,,,,,,,,,j,001,2021_Jul_05_1503,toilet,2021.1.3,99.94992519488179,
180,0,4,-4,0.94,,,,,2,0,2,0,1,55,111,50,,,,,,,,,,,,,,,,,,,,,,,779.5698780999519,None,779.5698780999519,None,779.0695386999287,None,f,0.40580799989402294,779.5698780999519,None,,,,,,,,,,,,,j,001,2021_Jul_05_1503,toilet,2021.1.3,99.94992519488179,
,,,,,,,,,2,0,2,0,,,,,,,,,,,,,,,,,,,,,,,,,,,,,,,,,,,,,779.9901644999627,None,space,1.7455313000828028,779.9901644999627,None,,,,,,,j,001,2021_Jul_05_1503,toilet,2021.1.3,99.94992519488179,
0,0,4,-4,0.97,,,,,3,0,3,0,0,0,0,9,,,,,,,,,,,,,,,,,781.7614126000553,None,space,0.6462803999893367,781.7614126000553,None,783.4224858998787,None,783.4224858998787,None,782.922146699857,None,j,0.5532990999054164,783.4224858998787,None,,,,,,,,,,,,,j,001,2021_Jul_05_1503,toilet,2021.1.3,99.94992519488179,
0,180,-4,4,0.85,,,,,3,0,3,0,0,1,1,14,,,,,,,,,,,,,,,,,,,,,,,784.993552000029,None,784.993552000029,None,784.4932102998719,None,f,0.42225770000368357,784.993552000029,None,,,,,,,,,,,,,j,001,2021_Jul_05_1503,toilet,2021.1.3,99.94992519488179,
180,180,4,-4,0.94,,,,,3,0,3,0,0,2,2,36,,,,,,,,,,,,,,,,,,,,,,,786.444531599991,None,786.444531599991,None,785.944198000012,None,j,0.7312278000172228,786.444531599991,None,,,,,,,,,,,,,j,001,2021_Jul_05_1503,toilet,2021.1.3,99.94992519488179,
180,180,4,-4,1.06,,,,,3,0,3,0,0,3,3,40,,,,,,,,,,,,,,,,,,,,,,,788.18576449994,None,788.18576449994,None,787.6854526998941,None,f,0.42994929989799857,788.18576449994,None,,,,,,,,,,,,,j,001,2021_Jul_05_1503,toilet,2021.1.3,99.94992519488179,
180,180,4,-4,0.85,,,,,3,0,3,0,0,4,4,35,,,,,,,,,,,,,,,,,,,,,,,789.6266917998437,None,789.6266917998437,None,789.1263518000487,None,j,0.4290870998520404,789.6266917998437,None,,,,,,,,,,,,,j,001,2021_Jul_05_1503,toilet,2021.1.3,99.94992519488179,
180,180,-4,4,0.97,,,,,3,0,3,0,0,5,5,30,,,,,,,,,,,,,,,,,,,,,,,791.0576730999164,None,791.0576730999164,None,790.5573493998963,None,f,0.4382342000026256,791.0576730999164,None,,,,,,,,,,,,,j,001,2021_Jul_05_1503,toilet,2021.1.3,99.94992519488179,
0,180,4,-4,1.06,,,,,3,0,3,0,0,6,6,26,,,,,,,,,,,,,,,,,,,,,,,792.5086429000366,None,792.5086429000366,None,792.0083409999497,None,f,0.5550817002076656,792.5086429000366,None,,,,,,,,,,,,,j,001,2021_Jul_05_1503,toilet,2021.1.3,99.94992519488179,
0,180,-4,4,1.15,,,,,3,0,3,0,0,7,7,20,,,,,,,,,,,,,,,,,,,,,,,794.0697985999286,None,794.0697985999286,None,793.5693589998409,None,f,0.3861106999684125,794.0697985999286,None,,,,,,,,,,,,,j,001,2021_Jul_05_1503,toilet,2021.1.3,99.94992519488179,
0,180,4,-4,0.97,,,,,3,0,3,0,0,8,8,23,,,,,,,,,,,,,,,,,,,,,,,795.4707434999291,None,795.4707434999291,None,794.9703203998506,None,f,0.6969967999029905,795.4707434999291,None,,,,,,,,,,,,,j,001,2021_Jul_05_1503,toilet,2021.1.3,99.94992519488179,
180,0,-4,4,1.0,,,,,3,0,3,0,0,9,9,45,,,,,,,,,,,,,,,,,,,,,,,797.1718009999022,None,797.1718009999022,None,796.6714671999216,None,f,0.5958575000986457,797.1718009999022,None,,,,,,,,,,,,,j,001,2021_Jul_05_1503,toilet,2021.1.3,99.94992519488179,
0,0,-4,4,0.97,,,,,3,0,3,0,0,10,10,2,,,,,,,,,,,,,,,,,,,,,,,798.7728839998599,None,798.7728839998599,None,798.2725464999676,None,j,0.5948344999924302,798.7728839998599,None,,,,,,,,,,,,,j,001,2021_Jul_05_1503,toilet,2021.1.3,99.94992519488179,
180,0,4,-4,1.06,,,,,3,0,3,0,0,11,11,54,,,,,,,,,,,,,,,,,,,,,,,800.3839817999396,None,800.3839817999396,None,799.883636899991,None,f,0.5677114001009613,800.3839817999396,None,,,,,,,,,,,,,j,001,2021_Jul_05_1503,toilet,2021.1.3,99.94992519488179,
0,0,4,-4,1.06,,,,,3,0,3,0,0,12,12,12,,,,,,,,,,,,,,,,,,,,,,,801.955132199917,None,801.955132199917,None,801.4547039000317,None,f,0.660842299927026,801.955132199917,None,,,,,,,,,,,,,j,001,2021_Jul_05_1503,toilet,2021.1.3,99.94992519488179,
0,180,-4,4,1.03,,,,,3,0,3,0,0,13,13,18,,,,,,,,,,,,,,,,,,,,,,,803.6261734999716,None,803.6261734999716,None,803.1258674999699,None,j,0.7175652000587434,803.6261734999716,None,,,,,,,,,,,,,j,001,2021_Jul_05_1503,toilet,2021.1.3,99.94992519488179,
180,0,4,-4,0.94,,,,,3,0,3,0,0,14,14,50,,,,,,,,,,,,,,,,,,,,,,,805.3473407998681,None,805.3473407998681,None,804.8469998000655,None,j,0.6765580999199301,805.3473407998681,None,,,,,,,,,,,,,j,001,2021_Jul_05_1503,toilet,2021.1.3,99.94992519488179,
180,0,4,-4,0.85,,,,,3,0,3,0,0,15,15,49,,,,,,,,,,,,,,,,,,,,,,,807.0484960998874,None,807.0484960998874,None,806.548153599957,None,j,0.39922249992378056,807.0484960998874,None,,,,,,,,,,,,,j,001,2021_Jul_05_1503,toilet,2021.1.3,99.94992519488179,
0,0,-4,4,0.94,,,,,3,0,3,0,0,16,16,1,,,,,,,,,,,,,,,,,,,,,,,808.4494425000157,None,808.4494425000157,None,807.9491047000047,None,f,0.7424486000090837,808.4494425000157,None,,,,,,,,,,,,,j,001,2021_Jul_05_1503,toilet,2021.1.3,99.94992519488179,
0,0,-4,4,1.15,,,,,3,0,3,0,0,17,17,6,,,,,,,,,,,,,,,,,,,,,,,810.2207187998574,None,810.2207187998574,None,809.7203424999025,None,j,0.47504300018772483,810.2207187998574,None,,,,,,,,,,,,,j,001,2021_Jul_05_1503,toilet,2021.1.3,99.94992519488179,
0,0,4,-4,1.03,,,,,3,0,3,0,0,18,18,11,,,,,,,,,,,,,,,,,,,,,,,811.7116505999584,None,811.7116505999584,None,811.2113085999154,None,f,0.792102999985218,811.7116505999584,None,,,,,,,,,,,,,j,001,2021_Jul_05_1503,toilet,2021.1.3,99.94992519488179,
0,0,4,-4,1.15,,,,,3,0,3,0,0,19,19,13,,,,,,,,,,,,,,,,,,,,,,,813.5028663000558,None,813.5028663000558,None,813.0025273000356,None,f,0.505052600055933,813.5028663000558,None,,,,,,,,,,,,,j,001,2021_Jul_05_1503,toilet,2021.1.3,99.94992519488179,
180,0,4,-4,1.15,,,,,3,0,3,0,0,20,20,55,,,,,,,,,,,,,,,,,,,,,,,815.0339021000545,None,815.0339021000545,None,814.5335643000435,None,f,0.8457536001224071,815.0339021000545,None,,,,,,,,,,,,,j,001,2021_Jul_05_1503,toilet,2021.1.3,99.94992519488179,
0,0,-4,4,1.06,,,,,3,0,3,0,0,21,21,5,,,,,,,,,,,,,,,,,,,,,,,816.8851928999647,None,816.8851928999647,None,816.384920099983,None,j,0.5146943998988718,816.8851928999647,None,,,,,,,,,,,,,j,001,2021_Jul_05_1503,toilet,2021.1.3,99.94992519488179,
0,180,4,-4,0.85,,,,,3,0,3,0,0,22,22,21,,,,,,,,,,,,,,,,,,,,,,,818.416193000041,None,818.416193000041,None,817.9158911998384,None,j,0.407605699962005,818.416193000041,None,,,,,,,,,,,,,j,001,2021_Jul_05_1503,toilet,2021.1.3,99.94992519488179,
180,180,-4,4,1.06,,,,,3,0,3,0,0,23,23,33,,,,,,,,,,,,,,,,,,,,,,,819.8271502999123,None,819.8271502999123,None,819.326824199874,None,f,0.7567632000427693,819.8271502999123,None,,,,,,,,,,,,,j,001,2021_Jul_05_1503,toilet,2021.1.3,99.94992519488179,
180,0,4,-4,1.0,,,,,3,0,3,0,0,24,24,52,,,,,,,,,,,,,,,,,,,,,,,821.6083515000064,None,821.6083515000064,None,821.1080147998873,None,f,0.44773139990866184,821.6083515000064,None,,,,,,,,,,,,,j,001,2021_Jul_05_1503,toilet,2021.1.3,99.94992519488179,
180,0,-4,4,1.03,,,,,3,0,3,0,0,25,25,46,,,,,,,,,,,,,,,,,,,,,,,823.0793556000572,None,823.0793556000572,None,822.5790154000279,None,j,0.41630250005982816,823.0793556000572,None,,,,,,,,,,,,,j,001,2021_Jul_05_1503,toilet,2021.1.3,99.94992519488179,
180,180,-4,4,1.0,,,,,3,0,3,0,0,26,26,31,,,,,,,,,,,,,,,,,,,,,,,824.5003855999094,None,824.5003855999094,None,824.0000561999623,None,f,0.41926440014503896,824.5003855999094,None,,,,,,,,,,,,,j,001,2021_Jul_05_1503,toilet,2021.1.3,99.94992519488179,
180,180,4,-4,1.03,,,,,3,0,3,0,0,27,27,39,,,,,,,,,,,,,,,,,,,,,,,825.9212877999526,None,825.9212877999526,None,825.4209781000391,None,f,0.4863913001026958,825.9212877999526,None,,,,,,,,,,,,,j,001,2021_Jul_05_1503,toilet,2021.1.3,99.94992519488179,
0,180,4,-4,0.94,,,,,3,0,3,0,0,28,28,22,,,,,,,,,,,,,,,,,,,,,,,827.412285399856,None,827.412285399856,None,826.911950299982,None,j,0.41949570016004145,827.412285399856,None,,,,,,,,,,,,,j,001,2021_Jul_05_1503,toilet,2021.1.3,99.94992519488179,
180,0,4,-4,1.03,,,,,3,0,3,0,0,29,29,53,,,,,,,,,,,,,,,,,,,,,,,828.8432576998603,None,828.8432576998603,None,828.3429181999527,None,f,0.47665530000813305,828.8432576998603,None,,,,,,,,,,,,,j,001,2021_Jul_05_1503,toilet,2021.1.3,99.94992519488179,
180,0,4,-4,0.97,,,,,3,0,3,0,0,30,30,51,,,,,,,,,,,,,,,,,,,,,,,830.3442807998508,None,830.3442807998508,None,829.8439320998732,None,f,0.4154348000884056,830.3442807998508,None,,,,,,,,,,,,,j,001,2021_Jul_05_1503,toilet,2021.1.3,99.94992519488179,
180,180,-4,4,0.94,,,,,3,0,3,0,0,31,31,29,,,,,,,,,,,,,,,,,,,,,,,831.7652732999995,None,831.7652732999995,None,831.2649991998915,None,f,0.6104846000671387,831.7652732999995,None,,,,,,,,,,,,,j,001,2021_Jul_05_1503,toilet,2021.1.3,99.94992519488179,
180,180,4,-4,0.97,,,,,3,0,3,0,0,32,32,37,,,,,,,,,,,,,,,,,,,,,,,833.3863590999972,None,833.3863590999972,None,832.8859955999069,None,j,0.4614908001385629,833.3863590999972,None,,,,,,,,,,,,,j,001,2021_Jul_05_1503,toilet,2021.1.3,99.94992519488179,
0,0,4,-4,0.85,,,,,3,0,3,0,0,33,33,7,,,,,,,,,,,,,,,,,,,,,,,834.8573314000387,None,834.8573314000387,None,834.356989899883,None,j,0.41435770015232265,834.8573314000387,None,,,,,,,,,,,,,j,001,2021_Jul_05_1503,toilet,2021.1.3,99.94992519488179,
0,180,-4,4,0.94,,,,,3,0,3,0,0,34,34,15,,,,,,,,,,,,,,,,,,,,,,,836.2782954999711,None,836.2782954999711,None,835.7779828999192,None,f,0.4174433001317084,836.2782954999711,None,,,,,,,,,,,,,j,001,2021_Jul_05_1503,toilet,2021.1.3,99.94992519488179,
180,180,4,-4,1.0,,,,,3,0,3,0,0,35,35,38,,,,,,,,,,,,,,,,,,,,,,,837.7092611000407,None,837.7092611000407,None,837.2089235000312,None,f,0.5383971999399364,837.7092611000407,None,,,,,,,,,,,,,j,001,2021_Jul_05_1503,toilet,2021.1.3,99.94992519488179,
180,180,-4,4,1.03,,,,,3,0,3,0,0,36,36,32,,,,,,,,,,,,,,,,,,,,,,,839.2503440999426,None,839.2503440999426,None,838.7500471000094,None,f,1.013358199968934,839.2503440999426,None,,,,,,,,,,,,,j,001,2021_Jul_05_1503,toilet,2021.1.3,99.94992519488179,
0,180,4,-4,1.03,,,,,3,0,3,0,0,37,37,25,,,,,,,,,,,,,,,,,,,,,,,841.2716788998805,None,841.2716788998805,None,840.7713377999607,None,f,0.8160276000853628,841.2716788998805,None,,,,,,,,,,,,,j,001,2021_Jul_05_1503,toilet,2021.1.3,99.94992519488179,
0,180,-4,4,0.97,,,,,3,0,3,0,0,38,38,16,,,,,,,,,,,,,,,,,,,,,,,843.0929093998857,None,843.0929093998857,None,842.5925700999796,None,f,0.674721899908036,843.0929093998857,None,,,,,,,,,,,,,j,001,2021_Jul_05_1503,toilet,2021.1.3,99.94992519488179,
0,180,4,-4,1.15,,,,,3,0,3,0,0,39,39,27,,,,,,,,,,,,,,,,,,,,,,,844.7740521999076,None,844.7740521999076,None,844.2737048999406,None,f,0.7058103999588639,844.7740521999076,None,,,,,,,,,,,,,j,001,2021_Jul_05_1503,toilet,2021.1.3,99.94992519488179,
0,0,-4,4,1.03,,,,,3,0,3,0,0,40,40,4,,,,,,,,,,,,,,,,,,,,,,,846.5053093000315,None,846.5053093000315,None,846.0048835999332,None,j,0.4785005000885576,846.5053093000315,None,,,,,,,,,,,,,j,001,2021_Jul_05_1503,toilet,2021.1.3,99.94992519488179,
180,180,-4,4,1.15,,,,,3,0,3,0,0,41,41,34,,,,,,,,,,,,,,,,,,,,,,,847.9962291999254,None,847.9962291999254,None,847.4958893000148,None,j,0.5075145999435335,847.9962291999254,None,,,,,,,,,,,,,j,001,2021_Jul_05_1503,toilet,2021.1.3,99.94992519488179,
0,0,-4,4,0.85,,,,,3,0,3,0,0,42,42,0,,,,,,,,,,,,,,,,,,,,,,,849.5072567998432,None,849.5072567998432,None,849.0069154999219,None,f,0.5324978998396546,849.5072567998432,None,,,,,,,,,,,,,j,001,2021_Jul_05_1503,toilet,2021.1.3,99.94992519488179,
180,180,-4,4,0.85,,,,,3,0,3,0,0,43,43,28,,,,,,,,,,,,,,,,,,,,,,,851.0683089999948,None,851.0683089999948,None,850.5679758000188,None,f,0.5555474997963756,851.0683089999948,None,,,,,,,,,,,,,j,001,2021_Jul_05_1503,toilet,2021.1.3,99.94992519488179,
0,180,4,-4,1.0,,,,,3,0,3,0,0,44,44,24,,,,,,,,,,,,,,,,,,,,,,,852.6493848999962,None,852.6493848999962,None,852.1490416999441,None,j,0.5582470998633653,852.6493848999962,None,,,,,,,,,,,,,j,001,2021_Jul_05_1503,toilet,2021.1.3,99.94992519488179,
180,0,-4,4,1.06,,,,,3,0,3,0,0,45,45,47,,,,,,,,,,,,,,,,,,,,,,,854.210534799844,None,854.210534799844,None,853.7101821000688,None,j,0.6453619000967592,854.210534799844,None,,,,,,,,,,,,,j,001,2021_Jul_05_1503,toilet,2021.1.3,99.94992519488179,
180,180,4,-4,1.15,,,,,3,0,3,0,0,46,46,41,,,,,,,,,,,,,,,,,,,,,,,855.871598900063,None,855.871598900063,None,855.3712216999847,None,f,0.504123100079596,855.871598900063,None,,,,,,,,,,,,,j,001,2021_Jul_05_1503,toilet,2021.1.3,99.94992519488179,
180,0,-4,4,0.85,,,,,3,0,3,0,0,47,47,42,,,,,,,,,,,,,,,,,,,,,,,857.3826021000277,None,857.3826021000277,None,856.8822490000166,None,f,0.5610783000010997,857.3826021000277,None,,,,,,,,,,,,,j,001,2021_Jul_05_1503,toilet,2021.1.3,99.94992519488179,
0,180,-4,4,1.0,,,,,3,0,3,0,0,48,48,17,,,,,,,,,,,,,,,,,,,,,,,858.9536538000684,None,858.9536538000684,None,858.4533273999114,None,j,0.6540243001654744,858.9536538000684,None,,,,,,,,,,,,,j,001,2021_Jul_05_1503,toilet,2021.1.3,99.94992519488179,
