ori_st,ori_pr,xpos_st,xpos_pr,size,trials_3.thisRepN,trials_3.thisTrialN,trials_3.thisN,trials_3.thisIndex,trials_2.thisRepN,trials_2.thisTrialN,trials_2.thisN,trials_2.thisIndex,trials.thisRepN,trials.thisTrialN,trials.thisN,trials.thisIndex,wel_pra.started,wel_pra.stopped,resp_wel.keys,resp_wel.rt,resp_wel.started,resp_wel.stopped,standard_pra.started,standard_pra.stopped,prove_pra.started,prove_pra.stopped,fixation.started,fixation.stopped,resp_pra.keys,resp_pra.rt,resp_pra.started,resp_pra.stopped,instr.started,instr.stopped,key_resp_2.keys,key_resp_2.rt,key_resp_2.started,key_resp_2.stopped,standard.started,standard.stopped,probe.started,probe.stopped,text.started,text.stopped,resp.keys,resp.rt,resp.started,resp.stopped,text_2.started,text_2.stopped,key_resp.keys,key_resp.rt,key_resp.started,key_resp.stopped,text_3.started,text_3.stopped,key_resp_3.keys,key_resp_3.rt,key_resp_3.started,key_resp_3.stopped,participant,session,date,expName,psychopyVersion,frameRate,
,,,,,,,,,,,,,,,,,21.147311899927445,None,space,141.60869819996879,21.147311899927445,None,,,,,,,,,,,,,,,,,,,,,,,,,,,,,,,,,,,,,,,s,001,2021_Jul_12_1654,toilet,2021.1.3,99.88822517845452,
180,180,-4,4,0.85,0,0,0,9,,,,,,,,,,,,,,,163.77998509991448,None,163.77998509991448,None,163.2795696000103,None,f,14.432179099996574,163.77998509991448,None,,,,,,,,,,,,,,,,,,,,,,,,,,,,,s,001,2021_Jul_12_1654,toilet,2021.1.3,99.88822517845452,
180,0,-4,4,0.85,0,1,1,12,,,,,,,,,,,,,,,179.23043889994733,None,179.23043889994733,None,178.7300314999884,None,f,2.629509699996561,179.23043889994733,None,,,,,,,,,,,,,,,,,,,,,,,,,,,,,s,001,2021_Jul_12_1654,toilet,2021.1.3,99.88822517845452,
180,180,-4,4,0.85,0,2,2,8,,,,,,,,,,,,,,,182.86287329997867,None,182.86287329997867,None,182.362498799921,None,f,3.061200500000268,182.86287329997867,None,,,,,,,,,,,,,,,,,,,,,,,,,,,,,s,001,2021_Jul_12_1654,toilet,2021.1.3,99.88822517845452,
180,0,-4,4,1.15,0,3,3,14,,,,,,,,,,,,,,,186.93557929992676,None,186.93557929992676,None,186.43534049997106,None,j,0.8125460000010207,186.93557929992676,None,,,,,,,,,,,,,,,,,,,,,,,,,,,,,s,001,2021_Jul_12_1654,toilet,2021.1.3,99.88822517845452,
180,0,-4,4,0.85,0,4,4,13,,,,,,,,,,,,,,,188.76684469997417,None,188.76684469997417,None,188.26650369993877,None,f,0.9491103999316692,188.76684469997417,None,,,,,,,,,,,,,,,,,,,,,,,,,,,,,s,001,2021_Jul_12_1654,toilet,2021.1.3,99.88822517845452,
0,0,4,-4,1.15,0,5,5,3,,,,,,,,,,,,,,,190.71816539997235,None,190.71816539997235,None,190.21782989997882,None,f,0.773897499893792,190.71816539997235,None,,,,,,,,,,,,,,,,,,,,,,,,,,,,,s,001,2021_Jul_12_1654,toilet,2021.1.3,99.88822517845452,
0,180,4,-4,0.85,0,6,6,5,,,,,,,,,,,,,,,192.50938079995103,None,192.50938079995103,None,192.0090413999278,None,j,0.7108630000147969,192.50938079995103,None,,,,,,,,,,,,,,,,,,,,,,,,,,,,,s,001,2021_Jul_12_1654,toilet,2021.1.3,99.88822517845452,
0,180,-4,4,0.85,0,7,7,4,,,,,,,,,,,,,,,194.23062829999253,None,194.23062829999253,None,193.7302076999331,None,f,1.261401499970816,194.23062829999253,None,,,,,,,,,,,,,,,,,,,,,,,,,,,,,s,001,2021_Jul_12_1654,toilet,2021.1.3,99.88822517845452,
0,0,4,-4,0.85,0,8,8,1,,,,,,,,,,,,,,,196.4920830000192,None,196.4920830000192,None,195.99174369999673,None,j,0.5198704999638721,196.4920830000192,None,,,,,,,,,,,,,,,,,,,,,,,,,,,,,s,001,2021_Jul_12_1654,toilet,2021.1.3,99.88822517845452,
0,0,-4,4,1.15,0,9,9,2,,,,,,,,,,,,,,,198.0131163999904,None,198.0131163999904,None,197.51278019999154,None,j,0.5988507000729442,198.0131163999904,None,,,,,,,,,,,,,,,,,,,,,,,,,,,,,s,001,2021_Jul_12_1654,toilet,2021.1.3,99.88822517845452,
180,180,-4,4,1.15,0,10,10,10,,,,,,,,,,,,,,,199.61420329997782,None,199.61420329997782,None,199.11385889991652,None,j,1.1580178000731394,199.61420329997782,None,,,,,,,,,,,,,,,,,,,,,,,,,,,,,s,001,2021_Jul_12_1654,toilet,2021.1.3,99.88822517845452,
180,180,-4,4,1.15,0,11,11,11,,,,,,,,,,,,,,,201.78575019992422,None,201.78575019992422,None,201.2853332000086,None,j,0.47436440002638847,201.78575019992422,None,,,,,,,,,,,,,,,,,,,,,,,,,,,,,s,001,2021_Jul_12_1654,toilet,2021.1.3,99.88822517845452,
0,0,-4,4,0.85,0,12,12,0,,,,,,,,,,,,,,,203.27668639994226,None,203.27668639994226,None,202.7763835999649,None,f,0.6792695999611169,203.27668639994226,None,,,,,,,,,,,,,,,,,,,,,,,,,,,,,s,001,2021_Jul_12_1654,toilet,2021.1.3,99.88822517845452,
180,0,-4,4,1.15,0,13,13,15,,,,,,,,,,,,,,,204.95782379992306,None,204.95782379992306,None,204.45748559990898,None,j,0.6143112999852747,204.95782379992306,None,,,,,,,,,,,,,,,,,,,,,,,,,,,,,s,001,2021_Jul_12_1654,toilet,2021.1.3,99.88822517845452,
0,180,-4,4,1.15,0,14,14,6,,,,,,,,,,,,,,,206.5889386999188,None,206.5889386999188,None,206.08858819992747,None,j,0.9670081000076607,206.5889386999188,None,,,,,,,,,,,,,,,,,,,,,,,,,,,,,s,001,2021_Jul_12_1654,toilet,2021.1.3,99.88822517845452,
0,180,4,-4,1.15,0,15,15,7,,,,,,,,,,,,,,,208.5603624000214,None,208.5603624000214,None,208.0599235999398,None,f,0.9155984000535682,208.5603624000214,None,,,,,,,,,,,,,,,,,,,,,,,,,,,,,s,001,2021_Jul_12_1654,toilet,2021.1.3,99.88822517845452,
180,180,-4,4,1.03,,,,,0,0,0,0,0,0,0,32,,,,,,,,,,,,,,,,,209.49092479993124,None,space,75.74524489999749,209.49092479993124,None,286.25296750001144,None,286.25296750001144,None,285.7526267999783,None,j,1.383018200052902,286.25296750001144,None,,,,,,,,,,,,,s,001,2021_Jul_12_1654,toilet,2021.1.3,99.88822517845452,
180,180,-4,4,1.06,,,,,0,0,0,0,0,1,1,33,,,,,,,,,,,,,,,,,,,,,,,288.65460379992146,None,288.65460379992146,None,288.1542610999895,None,j,0.6935001000529155,288.65460379992146,None,,,,,,,,,,,,,s,001,2021_Jul_12_1654,toilet,2021.1.3,99.88822517845452,
180,180,4,-4,1.03,,,,,0,0,0,0,0,2,2,39,,,,,,,,,,,,,,,,,,,,,,,290.3657620999729,None,290.3657620999729,None,289.86551259993576,None,f,1.3022636999376118,290.3657620999729,None,,,,,,,,,,,,,s,001,2021_Jul_12_1654,toilet,2021.1.3,99.88822517845452,
0,0,4,-4,1.0,,,,,0,0,0,0,0,3,3,10,,,,,,,,,,,,,,,,,,,,,,,292.67732829996385,None,292.67732829996385,None,292.1769884999376,None,j,0.9426851999014616,292.67732829996385,None,,,,,,,,,,,,,s,001,2021_Jul_12_1654,toilet,2021.1.3,99.88822517845452,
180,180,4,-4,1.0,,,,,0,0,0,0,0,4,4,38,,,,,,,,,,,,,,,,,,,,,,,294.638660699944,None,294.638660699944,None,294.13832449994516,None,j,2.197226300020702,294.638660699944,None,,,,,,,,,,,,,s,001,2021_Jul_12_1654,toilet,2021.1.3,99.88822517845452,
0,0,4,-4,1.15,,,,,0,0,0,0,0,5,5,13,,,,,,,,,,,,,,,,,,,,,,,297.8409077000106,None,297.8409077000106,None,297.3405582999112,None,f,0.9151877000695094,297.8409077000106,None,,,,,,,,,,,,,s,001,2021_Jul_12_1654,toilet,2021.1.3,99.88822517845452,
0,0,-4,4,1.0,,,,,0,0,0,0,0,6,6,3,,,,,,,,,,,,,,,,,,,,,,,299.76213489996735,None,299.76213489996735,None,299.2617955999449,None,j,1.0737633999669924,299.76213489996735,None,,,,,,,,,,,,,s,001,2021_Jul_12_1654,toilet,2021.1.3,99.88822517845452,
180,0,-4,4,0.94,,,,,0,0,0,0,0,7,7,43,,,,,,,,,,,,,,,,,,,,,,,301.84355059999507,None,301.84355059999507,None,301.3432071999414,None,f,1.2164216000819579,301.84355059999507,None,,,,,,,,,,,,,s,001,2021_Jul_12_1654,toilet,2021.1.3,99.88822517845452,
180,0,-4,4,1.0,,,,,0,0,0,0,0,8,8,45,,,,,,,,,,,,,,,,,,,,,,,304.0651233999524,None,304.0651233999524,None,303.5647173000034,None,j,1.570976100047119,304.0651233999524,None,,,,,,,,,,,,,s,001,2021_Jul_12_1654,toilet,2021.1.3,99.88822517845452,
0,180,-4,4,1.0,,,,,0,0,0,0,0,9,9,17,,,,,,,,,,,,,,,,,,,,,,,306.6468019000022,None,306.6468019000022,None,306.1464658000041,None,j,1.7250681000296026,306.6468019000022,None,,,,,,,,,,,,,s,001,2021_Jul_12_1654,toilet,2021.1.3,99.88822517845452,
0,0,4,-4,0.94,,,,,0,0,0,0,0,10,10,8,,,,,,,,,,,,,,,,,,,,,,,309.3786585999187,None,309.3786585999187,None,308.87832209991757,None,j,1.2332551999716088,309.3786585999187,None,,,,,,,,,,,,,s,001,2021_Jul_12_1654,toilet,2021.1.3,99.88822517845452,
0,0,-4,4,1.06,,,,,0,0,0,0,0,11,11,5,,,,,,,,,,,,,,,,,,,,,,,311.6202541999519,None,311.6202541999519,None,311.1198463999899,None,j,0.9438439999939874,311.6202541999519,None,,,,,,,,,,,,,s,001,2021_Jul_12_1654,toilet,2021.1.3,99.88822517845452,
0,0,4,-4,0.85,,,,,0,0,0,0,0,12,12,7,,,,,,,,,,,,,,,,,,,,,,,313.58150620001834,None,313.58150620001834,None,313.08120319992304,None,j,0.9023943999782205,313.58150620001834,None,,,,,,,,,,,,,s,001,2021_Jul_12_1654,toilet,2021.1.3,99.88822517845452,
180,180,4,-4,1.15,,,,,0,0,0,0,0,13,13,41,,,,,,,,,,,,,,,,,,,,,,,315.492809999967,None,315.492809999967,None,314.99248359992635,None,f,0.8311784999677911,315.492809999967,None,,,,,,,,,,,,,s,001,2021_Jul_12_1654,toilet,2021.1.3,99.88822517845452,
180,0,-4,4,0.85,,,,,0,0,0,0,0,14,14,42,,,,,,,,,,,,,,,,,,,,,,,317.33405559998937,None,317.33405559998937,None,316.83371589996386,None,f,0.8779696000274271,317.33405559998937,None,,,,,,,,,,,,,s,001,2021_Jul_12_1654,toilet,2021.1.3,99.88822517845452,
0,0,-4,4,1.03,,,,,0,0,0,0,0,15,15,4,,,,,,,,,,,,,,,,,,,,,,,319.22541129996534,None,319.22541129996534,None,318.7249927999219,None,j,0.41058399993926287,319.22541129996534,None,,,,,,,,,,,,,s,001,2021_Jul_12_1654,toilet,2021.1.3,99.88822517845452,
180,180,4,-4,0.97,,,,,0,0,0,0,0,16,16,37,,,,,,,,,,,,,,,,,,,,,,,320.64631240000017,None,320.64631240000017,None,320.14605599991046,None,j,1.6935858000069857,320.64631240000017,None,,,,,,,,,,,,,s,001,2021_Jul_12_1654,toilet,2021.1.3,99.88822517845452,
180,180,-4,4,0.94,,,,,0,0,0,0,0,17,17,29,,,,,,,,,,,,,,,,,,,,,,,323.34814050002024,None,323.34814050002024,None,322.8477974999696,None,f,1.1677956000203267,323.34814050002024,None,,,,,,,,,,,,,s,001,2021_Jul_12_1654,toilet,2021.1.3,99.88822517845452,
0,0,-4,4,0.97,,,,,0,0,0,0,0,18,18,2,,,,,,,,,,,,,,,,,,,,,,,325.5296059999382,None,325.5296059999382,None,325.02926979993936,None,f,2.154288399964571,325.5296059999382,None,,,,,,,,,,,,,s,001,2021_Jul_12_1654,toilet,2021.1.3,99.88822517845452,
0,180,-4,4,0.97,,,,,0,0,0,0,0,19,19,16,,,,,,,,,,,,,,,,,,,,,,,328.69175260001794,None,328.69175260001794,None,328.1914211999392,None,j,2.0962441000156105,328.69175260001794,None,,,,,,,,,,,,,s,001,2021_Jul_12_1654,toilet,2021.1.3,99.88822517845452,
180,0,-4,4,1.03,,,,,0,0,0,0,0,20,20,46,,,,,,,,,,,,,,,,,,,,,,,331.79385839996394,None,331.79385839996394,None,331.2935166999232,None,j,1.698171199997887,331.79385839996394,None,,,,,,,,,,,,,s,001,2021_Jul_12_1654,toilet,2021.1.3,99.88822517845452,
180,180,4,-4,0.94,,,,,0,0,0,0,0,21,21,36,,,,,,,,,,,,,,,,,,,,,,,334.50573560001794,None,334.50573560001794,None,334.005433299928,None,j,1.4022828000597656,334.50573560001794,None,,,,,,,,,,,,,s,001,2021_Jul_12_1654,toilet,2021.1.3,99.88822517845452,
0,180,4,-4,1.03,,,,,0,0,0,0,0,22,22,25,,,,,,,,,,,,,,,,,,,,,,,336.9073335999856,None,336.9073335999856,None,336.4069922999479,None,f,1.4167942000785843,336.9073335999856,None,,,,,,,,,,,,,s,001,2021_Jul_12_1654,toilet,2021.1.3,99.88822517845452,
180,0,4,-4,0.97,,,,,0,0,0,0,0,23,23,51,,,,,,,,,,,,,,,,,,,,,,,339.33898329990916,None,339.33898329990916,None,338.8386411999818,None,j,1.3850707999663427,339.33898329990916,None,,,,,,,,,,,,,s,001,2021_Jul_12_1654,toilet,2021.1.3,99.88822517845452,
0,180,4,-4,1.15,,,,,0,0,0,0,0,24,24,27,,,,,,,,,,,,,,,,,,,,,,,341.7507070999127,None,341.7507070999127,None,341.25027439999394,None,f,1.3092309000203386,341.7507070999127,None,,,,,,,,,,,,,s,001,2021_Jul_12_1654,toilet,2021.1.3,99.88822517845452,
180,180,-4,4,1.15,,,,,0,0,0,0,0,25,25,34,,,,,,,,,,,,,,,,,,,,,,,344.0621860999381,None,344.0621860999381,None,343.5618725999957,None,j,1.5739093000302091,344.0621860999381,None,,,,,,,,,,,,,s,001,2021_Jul_12_1654,toilet,2021.1.3,99.88822517845452,
0,0,4,-4,1.03,,,,,0,0,0,0,0,26,26,11,,,,,,,,,,,,,,,,,,,,,,,346.65394280001055,None,346.65394280001055,None,346.1536095999181,None,f,1.5420268999878317,346.65394280001055,None,,,,,,,,,,,,,s,001,2021_Jul_12_1654,toilet,2021.1.3,99.88822517845452,
0,180,-4,4,1.06,,,,,0,0,0,0,0,27,27,19,,,,,,,,,,,,,,,,,,,,,,,349.20567719999235,None,349.20567719999235,None,348.7054084999254,None,j,1.77437480003573,349.20567719999235,None,,,,,,,,,,,,,s,001,2021_Jul_12_1654,toilet,2021.1.3,99.88822517845452,
180,180,-4,4,0.97,,,,,0,0,0,0,0,28,28,30,,,,,,,,,,,,,,,,,,,,,,,351.9875590999145,None,351.9875590999145,None,351.4872162999818,None,f,1.6005841000005603,351.9875590999145,None,,,,,,,,,,,,,s,001,2021_Jul_12_1654,toilet,2021.1.3,99.88822517845452,
0,0,4,-4,1.06,,,,,0,0,0,0,0,29,29,12,,,,,,,,,,,,,,,,,,,,,,,354.5993259999668,None,354.5993259999668,None,354.0989852999337,None,f,1.724694599979557,354.5993259999668,None,,,,,,,,,,,,,s,001,2021_Jul_12_1654,toilet,2021.1.3,99.88822517845452,
180,180,4,-4,1.06,,,,,0,0,0,0,0,30,30,40,,,,,,,,,,,,,,,,,,,,,,,357.331277799909,None,357.331277799909,None,356.83092560002115,None,f,1.6806080000242218,357.331277799909,None,,,,,,,,,,,,,s,001,2021_Jul_12_1654,toilet,2021.1.3,99.88822517845452,
180,0,4,-4,0.94,,,,,0,0,0,0,0,31,31,50,,,,,,,,,,,,,,,,,,,,,,,360.013004599954,None,360.013004599954,None,359.51266739994753,None,j,2.5509746000170708,360.013004599954,None,,,,,,,,,,,,,s,001,2021_Jul_12_1654,toilet,2021.1.3,99.88822517845452,
0,180,4,-4,0.85,,,,,0,0,0,0,0,32,32,21,,,,,,,,,,,,,,,,,,,,,,,363.575511300005,None,363.575511300005,None,363.07516989996657,None,j,1.7883631999138743,363.575511300005,None,,,,,,,,,,,,,s,001,2021_Jul_12_1654,toilet,2021.1.3,99.88822517845452,
0,180,4,-4,1.06,,,,,0,0,0,0,0,33,33,26,,,,,,,,,,,,,,,,,,,,,,,366.3673114000121,None,366.3673114000121,None,365.86700700002257,None,f,1.6206509000621736,366.3673114000121,None,,,,,,,,,,,,,s,001,2021_Jul_12_1654,toilet,2021.1.3,99.88822517845452,
180,0,4,-4,1.06,,,,,0,0,0,0,0,34,34,54,,,,,,,,,,,,,,,,,,,,,,,368.9991013999097,None,368.9991013999097,None,368.49879340000916,None,f,1.6609246999723837,368.9991013999097,None,,,,,,,,,,,,,s,001,2021_Jul_12_1654,toilet,2021.1.3,99.88822517845452,
0,180,4,-4,0.94,,,,,0,0,0,0,0,35,35,22,,,,,,,,,,,,,,,,,,,,,,,371.67099519993644,None,371.67099519993644,None,371.1706506999908,None,j,1.341006400063634,371.67099519993644,None,,,,,,,,,,,,,s,001,2021_Jul_12_1654,toilet,2021.1.3,99.88822517845452,
0,180,-4,4,1.15,,,,,0,0,0,0,0,36,36,20,,,,,,,,,,,,,,,,,,,,,,,374.01249999995343,None,374.01249999995343,None,373.5121595999226,None,j,1.3355418000137433,374.01249999995343,None,,,,,,,,,,,,,s,001,2021_Jul_12_1654,toilet,2021.1.3,99.88822517845452,
0,0,-4,4,0.85,,,,,0,0,0,0,0,37,37,0,,,,,,,,,,,,,,,,,,,,,,,376.3640936999582,None,376.3640936999582,None,375.8637561999494,None,f,1.4799066999694332,376.3640936999582,None,,,,,,,,,,,,,s,001,2021_Jul_12_1654,toilet,2021.1.3,99.88822517845452,
0,180,-4,4,0.85,,,,,0,0,0,0,0,38,38,14,,,,,,,,,,,,,,,,,,,,,,,378.84586329991,None,378.84586329991,None,378.3455278999172,None,f,1.2700049000559375,378.84586329991,None,,,,,,,,,,,,,s,001,2021_Jul_12_1654,toilet,2021.1.3,99.88822517845452,
0,180,-4,4,0.94,,,,,0,0,0,0,0,39,39,15,,,,,,,,,,,,,,,,,,,,,,,381.11732029996347,None,381.11732029996347,None,380.6169783999212,None,j,1.6226901999907568,381.11732029996347,None,,,,,,,,,,,,,s,001,2021_Jul_12_1654,toilet,2021.1.3,99.88822517845452,
0,0,-4,4,1.15,,,,,0,0,0,0,0,40,40,6,,,,,,,,,,,,,,,,,,,,,,,383.74910619994625,None,383.74910619994625,None,383.2487759999931,None,j,1.1987405000254512,383.74910619994625,None,,,,,,,,,,,,,s,001,2021_Jul_12_1654,toilet,2021.1.3,99.88822517845452,
180,0,-4,4,0.97,,,,,0,0,0,0,0,41,41,44,,,,,,,,,,,,,,,,,,,,,,,385.95060919993557,None,385.95060919993557,None,385.450258799945,None,f,1.4453820999478921,385.95060919993557,None,,,,,,,,,,,,,s,001,2021_Jul_12_1654,toilet,2021.1.3,99.88822517845452,
180,0,4,-4,1.03,,,,,0,0,0,0,0,42,42,53,,,,,,,,,,,,,,,,,,,,,,,388.40225249994546,None,388.40225249994546,None,387.9019291999284,None,f,3.5216720999451354,388.40225249994546,None,,,,,,,,,,,,,s,001,2021_Jul_12_1654,toilet,2021.1.3,99.88822517845452,
0,0,-4,4,0.94,,,,,0,0,0,0,0,43,43,1,,,,,,,,,,,,,,,,,,,,,,,392.9254135999363,None,392.9254135999363,None,392.42498919996433,None,f,3.2225325000472367,392.9254135999363,None,,,,,,,,,,,,,s,001,2021_Jul_12_1654,toilet,2021.1.3,99.88822517845452,
0,0,4,-4,0.97,,,,,0,0,0,0,0,44,44,9,,,,,,,,,,,,,,,,,,,,,,,397.14817890000995,None,397.14817890000995,None,396.6478558999952,None,j,1.927874300046824,397.14817890000995,None,,,,,,,,,,,,,s,001,2021_Jul_12_1654,toilet,2021.1.3,99.88822517845452,
180,0,-4,4,1.15,,,,,0,0,0,0,0,45,45,48,,,,,,,,,,,,,,,,,,,,,,,400.08018119994085,None,400.08018119994085,None,399.5799236999592,None,j,1.0277998999226838,400.08018119994085,None,,,,,,,,,,,,,s,001,2021_Jul_12_1654,toilet,2021.1.3,99.88822517845452,
180,0,4,-4,1.0,,,,,0,0,0,0,0,46,46,52,,,,,,,,,,,,,,,,,,,,,,,402.1115585999796,None,402.1115585999796,None,401.61126539995894,None,f,1.8924726000986993,402.1115585999796,None,,,,,,,,,,,,,s,001,2021_Jul_12_1654,toilet,2021.1.3,99.88822517845452,
180,180,-4,4,1.0,,,,,0,0,0,0,0,47,47,31,,,,,,,,,,,,,,,,,,,,,,,405.00351700000465,None,405.00351700000465,None,404.5031846999191,None,f,1.960417399997823,405.00351700000465,None,,,,,,,,,,,,,s,001,2021_Jul_12_1654,toilet,2021.1.3,99.88822517845452,
180,0,4,-4,0.85,,,,,0,0,0,0,0,48,48,49,,,,,,,,,,,,,,,,,,,,,,,407.965654599946,None,407.965654599946,None,407.46526720002294,None,j,1.3662650999613106,407.965654599946,None,,,,,,,,,,,,,s,001,2021_Jul_12_1654,toilet,2021.1.3,99.88822517845452,
180,180,4,-4,0.85,,,,,0,0,0,0,0,49,49,35,,,,,,,,,,,,,,,,,,,,,,,410.3371439999901,None,410.3371439999901,None,409.83679249999113,None,j,1.7949247000506148,410.3371439999901,None,,,,,,,,,,,,,s,001,2021_Jul_12_1654,toilet,2021.1.3,99.88822517845452,
180,180,-4,4,0.85,,,,,0,0,0,0,0,50,50,28,,,,,,,,,,,,,,,,,,,,,,,413.1490477999905,None,413.1490477999905,None,412.6487047999399,None,f,1.3988163000904024,413.1490477999905,None,,,,,,,,,,,,,s,001,2021_Jul_12_1654,toilet,2021.1.3,99.88822517845452,
0,180,4,-4,0.97,,,,,0,0,0,0,0,51,51,23,,,,,,,,,,,,,,,,,,,,,,,415.56075990002137,None,415.56075990002137,None,415.06043549999595,None,j,1.6272285000886768,415.56075990002137,None,,,,,,,,,,,,,s,001,2021_Jul_12_1654,toilet,2021.1.3,99.88822517845452,
0,180,4,-4,1.0,,,,,0,0,0,0,0,52,52,24,,,,,,,,,,,,,,,,,,,,,,,418.1924643999664,None,418.1924643999664,None,417.69212379993405,None,f,3.6196252999361604,418.1924643999664,None,,,,,,,,,,,,,s,001,2021_Jul_12_1654,toilet,2021.1.3,99.88822517845452,
180,0,-4,4,1.06,,,,,0,0,0,0,0,53,53,47,,,,,,,,,,,,,,,,,,,,,,,422.82560799992643,None,422.82560799992643,None,422.32536839996465,None,j,1.738248600042425,422.82560799992643,None,,,,,,,,,,,,,s,001,2021_Jul_12_1654,toilet,2021.1.3,99.88822517845452,
0,180,-4,4,1.03,,,,,0,0,0,0,0,54,54,18,,,,,,,,,,,,,,,,,,,,,,,425.5674680999946,None,425.5674680999946,None,425.06713599991053,None,j,2.340470200055279,425.5674680999946,None,,,,,,,,,,,,,s,001,2021_Jul_12_1654,toilet,2021.1.3,99.88822517845452,
180,0,4,-4,1.15,,,,,0,0,0,0,0,55,55,55,,,,,,,,,,,,,,,,,,,,,,,428.9197203000076,None,428.9197203000076,None,428.4193947999738,None,f,1.692364800022915,428.9197203000076,None,,,,,,,,,,,,,s,001,2021_Jul_12_1654,toilet,2021.1.3,99.88822517845452,
180,0,4,-4,1.0,,,,,0,0,0,0,1,0,56,52,,,,,,,,,,,,,,,,,,,,,,,431.62157459999435,None,431.62157459999435,None,431.12123539997265,None,j,1.7103509000735357,431.62157459999435,None,,,,,,,,,,,,,s,001,2021_Jul_12_1654,toilet,2021.1.3,99.88822517845452,
0,180,-4,4,0.85,,,,,0,0,0,0,1,1,57,14,,,,,,,,,,,,,,,,,,,,,,,434.3334187999135,None,434.3334187999135,None,433.83306889992673,None,f,1.6544544999487698,434.3334187999135,None,,,,,,,,,,,,,s,001,2021_Jul_12_1654,toilet,2021.1.3,99.88822517845452,
180,0,-4,4,1.15,,,,,0,0,0,0,1,2,58,48,,,,,,,,,,,,,,,,,,,,,,,436.9953099999111,None,436.9953099999111,None,436.4948729999596,None,j,1.5366376000456512,436.9953099999111,None,,,,,,,,,,,,,s,001,2021_Jul_12_1654,toilet,2021.1.3,99.88822517845452,
0,180,4,-4,0.94,,,,,0,0,0,0,1,3,59,22,,,,,,,,,,,,,,,,,,,,,,,439.5369408999104,None,439.5369408999104,None,439.03660439990927,None,j,1.6190174999646842,439.5369408999104,None,,,,,,,,,,,,,s,001,2021_Jul_12_1654,toilet,2021.1.3,99.88822517845452,
0,0,4,-4,0.97,,,,,0,0,0,0,1,4,60,9,,,,,,,,,,,,,,,,,,,,,,,442.1587283000117,None,442.1587283000117,None,441.6583854999626,None,j,1.973272299976088,442.1587283000117,None,,,,,,,,,,,,,s,001,2021_Jul_12_1654,toilet,2021.1.3,99.88822517845452,
180,0,4,-4,0.97,,,,,0,0,0,0,1,5,61,51,,,,,,,,,,,,,,,,,,,,,,,445.15083419997245,None,445.15083419997245,None,444.65049059991725,None,j,1.7810133999446407,445.15083419997245,None,,,,,,,,,,,,,s,001,2021_Jul_12_1654,toilet,2021.1.3,99.88822517845452,
180,180,-4,4,0.94,,,,,0,0,0,0,1,6,62,29,,,,,,,,,,,,,,,,,,,,,,,447.9326288999291,None,447.9326288999291,None,447.43228840001393,None,f,1.319395300000906,447.9326288999291,None,,,,,,,,,,,,,s,001,2021_Jul_12_1654,toilet,2021.1.3,99.88822517845452,
0,0,4,-4,0.94,,,,,0,0,0,0,1,7,63,8,,,,,,,,,,,,,,,,,,,,,,,450.26422100001946,None,450.26422100001946,None,449.76386970002204,None,j,1.3879992000292987,450.26422100001946,None,,,,,,,,,,,,,s,001,2021_Jul_12_1654,toilet,2021.1.3,99.88822517845452,
180,180,-4,4,0.85,,,,,0,0,0,0,1,8,64,28,,,,,,,,,,,,,,,,,,,,,,,452.6658354999963,None,452.6658354999963,None,452.165576600004,None,f,1.306009800056927,452.6658354999963,None,,,,,,,,,,,,,s,001,2021_Jul_12_1654,toilet,2021.1.3,99.88822517845452,
180,180,-4,4,1.06,,,,,0,0,0,0,1,9,65,33,,,,,,,,,,,,,,,,,,,,,,,454.9774199000094,None,454.9774199000094,None,454.47707519994583,None,j,1.250527000054717,454.9774199000094,None,,,,,,,,,,,,,s,001,2021_Jul_12_1654,toilet,2021.1.3,99.88822517845452,
180,180,4,-4,1.0,,,,,0,0,0,0,1,10,66,38,,,,,,,,,,,,,,,,,,,,,,,457.23894730000757,None,457.23894730000757,None,456.7386082999874,None,f,2.700936899986118,457.23894730000757,None,,,,,,,,,,,,,s,001,2021_Jul_12_1654,toilet,2021.1.3,99.88822517845452,
180,180,4,-4,0.97,,,,,0,0,0,0,1,11,67,37,,,,,,,,,,,,,,,,,,,,,,,460.94145139993634,None,460.94145139993634,None,460.4411583999172,None,j,1.4625070999609306,460.94145139993634,None,,,,,,,,,,,,,s,001,2021_Jul_12_1654,toilet,2021.1.3,99.88822517845452,
180,0,4,-4,1.06,,,,,0,0,0,0,1,12,68,54,,,,,,,,,,,,,,,,,,,,,,,463.41315449995454,None,463.41315449995454,None,462.9128042999655,None,f,1.6308460999280214,463.41315449995454,None,,,,,,,,,,,,,s,001,2021_Jul_12_1654,toilet,2021.1.3,99.88822517845452,
0,180,-4,4,0.97,,,,,0,0,0,0,1,13,69,16,,,,,,,,,,,,,,,,,,,,,,,466.05492329993285,None,466.05492329993285,None,465.5545877999393,None,j,2.0769234999315813,466.05492329993285,None,,,,,,,,,,,,,s,001,2021_Jul_12_1654,toilet,2021.1.3,99.88822517845452,
180,0,-4,4,1.06,,,,,0,0,0,0,1,14,70,47,,,,,,,,,,,,,,,,,,,,,,,469.1370189000154,None,469.1370189000154,None,468.6366817000089,None,j,1.9230006000725552,469.1370189000154,None,,,,,,,,,,,,,s,001,2021_Jul_12_1654,toilet,2021.1.3,99.88822517845452,
0,180,-4,4,1.0,,,,,0,0,0,0,1,15,71,17,,,,,,,,,,,,,,,,,,,,,,,472.0790142000187,None,472.0790142000187,None,471.5786755000008,None,f,2.020928699988872,472.0790142000187,None,,,,,,,,,,,,,s,001,2021_Jul_12_1654,toilet,2021.1.3,99.88822517845452,
180,180,4,-4,1.15,,,,,0,0,0,0,1,16,72,41,,,,,,,,,,,,,,,,,,,,,,,475.1110853999853,None,475.1110853999853,None,474.6108004999114,None,f,1.9487784000812098,475.1110853999853,None,,,,,,,,,,,,,s,001,2021_Jul_12_1654,toilet,2021.1.3,99.88822517845452,
180,180,4,-4,1.03,,,,,0,0,0,0,1,17,73,39,,,,,,,,,,,,,,,,,,,,,,,478.06306780001614,None,478.06306780001614,None,477.5627281999914,None,f,3.205018899985589,478.06306780001614,None,,,,,,,,,,,,,s,001,2021_Jul_12_1654,toilet,2021.1.3,99.88822517845452,
0,0,-4,4,0.97,,,,,0,0,0,0,1,18,74,2,,,,,,,,,,,,,,,,,,,,,,,482.285933899926,None,482.285933899926,None,481.7856646999717,None,j,1.8778648999286816,482.285933899926,None,,,,,,,,,,,,,s,001,2021_Jul_12_1654,toilet,2021.1.3,99.88822517845452,
0,180,4,-4,0.85,,,,,0,0,0,0,1,19,75,21,,,,,,,,,,,,,,,,,,,,,,,485.1678894999204,None,485.1678894999204,None,484.6675449999748,None,j,1.6200576999690384,485.1678894999204,None,,,,,,,,,,,,,s,001,2021_Jul_12_1654,toilet,2021.1.3,99.88822517845452,
180,0,4,-4,0.85,,,,,0,0,0,0,1,20,76,49,,,,,,,,,,,,,,,,,,,,,,,487.79967510001734,None,487.79967510001734,None,487.299334499985,None,j,1.35633229999803,487.79967510001734,None,,,,,,,,,,,,,s,001,2021_Jul_12_1654,toilet,2021.1.3,99.88822517845452,
0,0,-4,4,1.0,,,,,0,0,0,0,1,21,77,3,,,,,,,,,,,,,,,,,,,,,,,490.17127379996236,None,490.17127379996236,None,489.6710244999267,None,j,2.3768452999647707,490.17127379996236,None,,,,,,,,,,,,,s,001,2021_Jul_12_1654,toilet,2021.1.3,99.88822517845452,
0,180,4,-4,1.06,,,,,0,0,0,0,1,22,78,26,,,,,,,,,,,,,,,,,,,,,,,493.5635816999711,None,493.5635816999711,None,493.0632200000109,None,f,1.6723144999705255,493.5635816999711,None,,,,,,,,,,,,,s,001,2021_Jul_12_1654,toilet,2021.1.3,99.88822517845452,
180,0,4,-4,1.03,,,,,0,0,0,0,1,23,79,53,,,,,,,,,,,,,,,,,,,,,,,496.2354807999218,None,496.2354807999218,None,495.735051299911,None,f,3.240335899987258,496.2354807999218,None,,,,,,,,,,,,,s,001,2021_Jul_12_1654,toilet,2021.1.3,99.88822517845452,
0,0,-4,4,1.06,,,,,0,0,0,0,1,24,80,5,,,,,,,,,,,,,,,,,,,,,,,500.47827099997085,None,500.47827099997085,None,499.97793649998493,None,j,0.7895549999084324,500.47827099997085,None,,,,,,,,,,,,,s,001,2021_Jul_12_1654,toilet,2021.1.3,99.88822517845452,
0,0,4,-4,1.03,,,,,0,0,0,0,1,25,81,11,,,,,,,,,,,,,,,,,,,,,,,502.26949849992525,None,502.26949849992525,None,501.7691506999545,None,f,0.9503850999753922,502.26949849992525,None,,,,,,,,,,,,,s,001,2021_Jul_12_1654,toilet,2021.1.3,99.88822517845452,
0,180,-4,4,0.94,,,,,0,0,0,0,1,26,82,15,,,,,,,,,,,,,,,,,,,,,,,504.2208901999984,None,504.2208901999984,None,503.720568299992,None,f,1.8150370999937877,504.2208901999984,None,,,,,,,,,,,,,s,001,2021_Jul_12_1654,toilet,2021.1.3,99.88822517845452,
0,0,-4,4,0.85,,,,,0,0,0,0,1,27,83,0,,,,,,,,,,,,,,,,,,,,,,,507.04272509994917,None,507.04272509994917,None,506.5423872999381,None,f,0.6730967999901623,507.04272509994917,None,,,,,,,,,,,,,s,001,2021_Jul_12_1654,toilet,2021.1.3,99.88822517845452,
0,0,-4,4,0.94,,,,,0,0,0,0,1,28,84,1,,,,,,,,,,,,,,,,,,,,,,,508.7238616999239,None,508.7238616999239,None,508.22352779994253,None,f,1.6159848000388592,508.7238616999239,None,,,,,,,,,,,,,s,001,2021_Jul_12_1654,toilet,2021.1.3,99.88822517845452,
0,0,-4,4,1.03,,,,,0,0,0,0,1,29,85,4,,,,,,,,,,,,,,,,,,,,,,,511.34571929997765,None,511.34571929997765,None,510.84538969991263,None,j,0.8980857999995351,511.34571929997765,None,,,,,,,,,,,,,s,001,2021_Jul_12_1654,toilet,2021.1.3,99.88822517845452,
180,180,-4,4,1.03,,,,,0,0,0,0,1,30,86,32,,,,,,,,,,,,,,,,,,,,,,,513.2569362999639,None,513.2569362999639,None,512.7566014999757,None,j,1.4190777000039816,513.2569362999639,None,,,,,,,,,,,,,s,001,2021_Jul_12_1654,toilet,2021.1.3,99.88822517845452,
180,180,-4,4,1.15,,,,,0,0,0,0,1,31,87,34,,,,,,,,,,,,,,,,,,,,,,,515.6885856000008,None,515.6885856000008,None,515.1882484999951,None,j,0.8434355000499636,515.6885856000008,None,,,,,,,,,,,,,s,001,2021_Jul_12_1654,toilet,2021.1.3,99.88822517845452,
180,180,-4,4,0.97,,,,,0,0,0,0,1,32,88,30,,,,,,,,,,,,,,,,,,,,,,,517.5498461999232,None,517.5498461999232,None,517.0495843000244,None,f,1.1262359999818727,517.5498461999232,None,,,,,,,,,,,,,s,001,2021_Jul_12_1654,toilet,2021.1.3,99.88822517845452,
180,0,-4,4,0.97,,,,,0,0,0,0,1,33,89,44,,,,,,,,,,,,,,,,,,,,,,,519.691298599937,None,519.691298599937,None,519.1909698999953,None,j,2.216522100032307,519.691298599937,None,,,,,,,,,,,,,s,001,2021_Jul_12_1654,toilet,2021.1.3,99.88822517845452,
0,0,4,-4,1.06,,,,,0,0,0,0,1,34,90,12,,,,,,,,,,,,,,,,,,,,,,,522.9134959999938,None,522.9134959999938,None,522.4131499999203,None,f,1.138427900034003,522.9134959999938,None,,,,,,,,,,,,,s,001,2021_Jul_12_1654,toilet,2021.1.3,99.88822517845452,
0,180,-4,4,1.06,,,,,0,0,0,0,1,35,91,19,,,,,,,,,,,,,,,,,,,,,,,525.0650457999436,None,525.0650457999436,None,524.5646102000028,None,j,1.6907966999569908,525.0650457999436,None,,,,,,,,,,,,,s,001,2021_Jul_12_1654,toilet,2021.1.3,99.88822517845452,
180,180,4,-4,0.94,,,,,0,0,0,0,1,36,92,36,,,,,,,,,,,,,,,,,,,,,,,527.766770599992,None,527.766770599992,None,527.2664375000168,None,j,2.077224800013937,527.766770599992,None,,,,,,,,,,,,,s,001,2021_Jul_12_1654,toilet,2021.1.3,99.88822517845452,
180,0,-4,4,0.85,,,,,0,0,0,0,1,37,93,42,,,,,,,,,,,,,,,,,,,,,,,530.8588697999949,None,530.8588697999949,None,530.35853149998,None,f,2.4571315000066534,530.8588697999949,None,,,,,,,,,,,,,s,001,2021_Jul_12_1654,toilet,2021.1.3,99.88822517845452,
0,0,-4,4,1.15,,,,,0,0,0,0,1,38,94,6,,,,,,,,,,,,,,,,,,,,,,,534.3313064000104,None,534.3313064000104,None,533.8308838999365,None,j,0.7126656000036746,534.3313064000104,None,,,,,,,,,,,,,s,001,2021_Jul_12_1654,toilet,2021.1.3,99.88822517845452,
0,0,4,-4,1.0,,,,,0,0,0,0,1,39,95,10,,,,,,,,,,,,,,,,,,,,,,,536.052390399971,None,536.052390399971,None,535.5520531999646,None,j,1.4235046999529004,536.052390399971,None,,,,,,,,,,,,,s,001,2021_Jul_12_1654,toilet,2021.1.3,99.88822517845452,
0,180,-4,4,1.15,,,,,0,0,0,0,1,40,96,20,,,,,,,,,,,,,,,,,,,,,,,538.4940479999641,None,538.4940479999641,None,537.993713999982,None,j,0.6937787999631837,538.4940479999641,None,,,,,,,,,,,,,s,001,2021_Jul_12_1654,toilet,2021.1.3,99.88822517845452,
0,180,4,-4,1.15,,,,,0,0,0,0,1,41,97,27,,,,,,,,,,,,,,,,,,,,,,,540.1952842000173,None,540.1952842000173,None,539.6948633999564,None,f,0.7686570000369102,540.1952842000173,None,,,,,,,,,,,,,s,001,2021_Jul_12_1654,toilet,2021.1.3,99.88822517845452,
180,0,4,-4,1.15,,,,,0,0,0,0,1,42,98,55,,,,,,,,,,,,,,,,,,,,,,,541.9764134999132,None,541.9764134999132,None,541.4760823999532,None,f,0.827375499997288,541.9764134999132,None,,,,,,,,,,,,,s,001,2021_Jul_12_1654,toilet,2021.1.3,99.88822517845452,
0,180,4,-4,1.0,,,,,0,0,0,0,1,43,99,24,,,,,,,,,,,,,,,,,,,,,,,543.8076545000076,None,543.8076545000076,None,543.3073136999737,None,j,1.4123215000145137,543.8076545000076,None,,,,,,,,,,,,,s,001,2021_Jul_12_1654,toilet,2021.1.3,99.88822517845452,
180,0,4,-4,0.94,,,,,0,0,0,0,1,44,100,50,,,,,,,,,,,,,,,,,,,,,,,546.2292955999728,None,546.2292955999728,None,545.7289586999686,None,j,1.6305880999425426,546.2292955999728,None,,,,,,,,,,,,,s,001,2021_Jul_12_1654,toilet,2021.1.3,99.88822517845452,
180,0,-4,4,1.03,,,,,0,0,0,0,1,45,101,46,,,,,,,,,,,,,,,,,,,,,,,548.8710923999315,None,548.8710923999315,None,548.3708358999575,None,j,2.0767115999478847,548.8710923999315,None,,,,,,,,,,,,,s,001,2021_Jul_12_1654,toilet,2021.1.3,99.88822517845452,
0,180,4,-4,0.97,,,,,0,0,0,0,1,46,102,23,,,,,,,,,,,,,,,,,,,,,,,551.9531765999272,None,551.9531765999272,None,551.4528365000151,None,j,4.450647699995898,551.9531765999272,None,,,,,,,,,,,,,s,001,2021_Jul_12_1654,toilet,2021.1.3,99.88822517845452,
0,0,4,-4,1.15,,,,,0,0,0,0,1,47,103,13,,,,,,,,,,,,,,,,,,,,,,,557.416882499936,None,557.416882499936,None,556.9165453999303,None,f,3.243032000027597,557.416882499936,None,,,,,,,,,,,,,s,001,2021_Jul_12_1654,toilet,2021.1.3,99.88822517845452,
180,180,4,-4,1.06,,,,,0,0,0,0,1,48,104,40,,,,,,,,,,,,,,,,,,,,,,,561.6697687999113,None,561.6697687999113,None,561.1694252999732,None,f,1.3741882999893278,561.6697687999113,None,,,,,,,,,,,,,s,001,2021_Jul_12_1654,toilet,2021.1.3,99.88822517845452,
0,0,4,-4,0.85,,,,,0,0,0,0,1,49,105,7,,,,,,,,,,,,,,,,,,,,,,,564.0613860000158,None,564.0613860000158,None,563.5610840999288,None,j,1.510404200060293,564.0613860000158,None,,,,,,,,,,,,,s,001,2021_Jul_12_1654,toilet,2021.1.3,99.88822517845452,
180,0,-4,4,0.94,,,,,0,0,0,0,1,50,106,43,,,,,,,,,,,,,,,,,,,,,,,566.573090699967,None,566.573090699967,None,566.0727610000176,None,f,1.3668854999123141,566.573090699967,None,,,,,,,,,,,,,s,001,2021_Jul_12_1654,toilet,2021.1.3,99.88822517845452,
0,180,4,-4,1.03,,,,,0,0,0,0,1,51,107,25,,,,,,,,,,,,,,,,,,,,,,,568.9547958999174,None,568.9547958999174,None,568.4543735999614,None,j,2.233100400073454,568.9547958999174,None,,,,,,,,,,,,,s,001,2021_Jul_12_1654,toilet,2021.1.3,99.88822517845452,
0,180,-4,4,1.03,,,,,0,0,0,0,1,52,108,18,,,,,,,,,,,,,,,,,,,,,,,572.1969105999451,None,572.1969105999451,None,571.6965865999227,None,j,2.303009699913673,572.1969105999451,None,,,,,,,,,,,,,s,001,2021_Jul_12_1654,toilet,2021.1.3,99.88822517845452,
180,0,-4,4,1.0,,,,,0,0,0,0,1,53,109,45,,,,,,,,,,,,,,,,,,,,,,,575.5191600999096,None,575.5191600999096,None,575.0188317999709,None,j,2.3407189999707043,575.5191600999096,None,,,,,,,,,,,,,s,001,2021_Jul_12_1654,toilet,2021.1.3,99.88822517845452,
180,180,4,-4,0.85,,,,,0,0,0,0,1,54,110,35,,,,,,,,,,,,,,,,,,,,,,,578.871436299989,None,578.871436299989,None,578.3711062999209,None,j,0.8763853000709787,578.871436299989,None,,,,,,,,,,,,,s,001,2021_Jul_12_1654,toilet,2021.1.3,99.88822517845452,
180,180,-4,4,1.0,,,,,0,0,0,0,1,55,111,31,,,,,,,,,,,,,,,,,,,,,,,580.75270740001,None,580.75270740001,None,580.252373599913,None,f,2.2750850999727845,580.75270740001,None,,,,,,,,,,,,,s,001,2021_Jul_12_1654,toilet,2021.1.3,99.88822517845452,
,,,,,,,,,0,0,0,0,,,,,,,,,,,,,,,,,,,,,,,,,,,,,,,,,,,,,583.0442655999213,None,space,2.0157616999931633,583.0442655999213,None,,,,,,,s,001,2021_Jul_12_1654,toilet,2021.1.3,99.88822517845452,
180,180,4,-4,1.0,,,,,1,0,1,0,0,0,0,38,,,,,,,,,,,,,,,,,585.085683299927,None,space,1.2541087999707088,585.085683299927,None,587.3571854999755,None,587.3571854999755,None,586.8568492999766,None,f,2.102717800065875,587.3571854999755,None,,,,,,,,,,,,,s,001,2021_Jul_12_1654,toilet,2021.1.3,99.88822517845452,
180,180,-4,4,1.0,,,,,1,0,1,0,0,1,1,31,,,,,,,,,,,,,,,,,,,,,,,590.4692973999772,None,590.4692973999772,None,589.968962199986,None,f,1.3266627000411972,590.4692973999772,None,,,,,,,,,,,,,s,001,2021_Jul_12_1654,toilet,2021.1.3,99.88822517845452,
180,180,-4,4,1.03,,,,,1,0,1,0,0,2,2,32,,,,,,,,,,,,,,,,,,,,,,,592.8109571000095,None,592.8109571000095,None,592.310559000005,None,j,1.0008993000956252,592.8109571000095,None,,,,,,,,,,,,,s,001,2021_Jul_12_1654,toilet,2021.1.3,99.88822517845452,
0,180,-4,4,1.0,,,,,1,0,1,0,0,3,3,17,,,,,,,,,,,,,,,,,,,,,,,594.8122450999217,None,594.8122450999217,None,594.3119032999966,None,j,2.0557072999654338,594.8122450999217,None,,,,,,,,,,,,,s,001,2021_Jul_12_1654,toilet,2021.1.3,99.88822517845452,
180,180,-4,4,1.15,,,,,1,0,1,0,0,4,4,34,,,,,,,,,,,,,,,,,,,,,,,597.8843286000192,None,597.8843286000192,None,597.3839861999732,None,j,0.8394595000427216,597.8843286000192,None,,,,,,,,,,,,,s,001,2021_Jul_12_1654,toilet,2021.1.3,99.88822517845452,
0,180,4,-4,1.06,,,,,1,0,1,0,0,5,5,26,,,,,,,,,,,,,,,,,,,,,,,599.725664199912,None,599.725664199912,None,599.2253209999762,None,f,1.4301158000016585,599.725664199912,None,,,,,,,,,,,,,s,001,2021_Jul_12_1654,toilet,2021.1.3,99.88822517845452,
0,0,4,-4,0.97,,,,,1,0,1,0,0,6,6,9,,,,,,,,,,,,,,,,,,,,,,,602.1572232999606,None,602.1572232999606,None,601.6568864999572,None,j,0.8867398999864236,602.1572232999606,None,,,,,,,,,,,,,s,001,2021_Jul_12_1654,toilet,2021.1.3,99.88822517845452,
180,180,-4,4,0.94,,,,,1,0,1,0,0,7,7,29,,,,,,,,,,,,,,,,,,,,,,,604.0685173999518,None,604.0685173999518,None,603.5681858999887,None,f,1.343270199955441,604.0685173999518,None,,,,,,,,,,,,,s,001,2021_Jul_12_1654,toilet,2021.1.3,99.88822517845452,
180,0,-4,4,1.06,,,,,1,0,1,0,0,8,8,47,,,,,,,,,,,,,,,,,,,,,,,606.4201835999265,None,606.4201835999265,None,605.9197763999691,None,j,1.4396670999703929,606.4201835999265,None,,,,,,,,,,,,,s,001,2021_Jul_12_1654,toilet,2021.1.3,99.88822517845452,
180,0,-4,4,0.94,,,,,1,0,1,0,0,9,9,43,,,,,,,,,,,,,,,,,,,,,,,608.8717725999886,None,608.8717725999886,None,608.371434199973,None,f,0.9080104000167921,608.8717725999886,None,,,,,,,,,,,,,s,001,2021_Jul_12_1654,toilet,2021.1.3,99.88822517845452,
0,0,4,-4,1.0,,,,,1,0,1,0,0,10,10,10,,,,,,,,,,,,,,,,,,,,,,,610.783072500024,None,610.783072500024,None,610.2827332000015,None,f,1.5728321999777108,610.783072500024,None,,,,,,,,,,,,,s,001,2021_Jul_12_1654,toilet,2021.1.3,99.88822517845452,
180,180,4,-4,0.85,,,,,1,0,1,0,0,11,11,35,,,,,,,,,,,,,,,,,,,,,,,613.3648202000186,None,613.3648202000186,None,612.8644842000213,None,j,0.735164999961853,613.3648202000186,None,,,,,,,,,,,,,s,001,2021_Jul_12_1654,toilet,2021.1.3,99.88822517845452,
180,0,4,-4,0.97,,,,,1,0,1,0,0,12,12,51,,,,,,,,,,,,,,,,,,,,,,,615.1060336999362,None,615.1060336999362,None,614.6057536000153,None,j,1.393862200086005,615.1060336999362,None,,,,,,,,,,,,,s,001,2021_Jul_12_1654,toilet,2021.1.3,99.88822517845452,
0,0,-4,4,0.97,,,,,1,0,1,0,0,13,13,2,,,,,,,,,,,,,,,,,,,,,,,617.5076248999685,None,617.5076248999685,None,617.0072964999126,None,f,0.8963292998960242,617.5076248999685,None,,,,,,,,,,,,,s,001,2021_Jul_12_1654,toilet,2021.1.3,99.88822517845452,
0,180,4,-4,0.85,,,,,1,0,1,0,0,14,14,21,,,,,,,,,,,,,,,,,,,,,,,619.4189278999111,None,619.4189278999111,None,618.9185958999442,None,j,0.8410980999469757,619.4189278999111,None,,,,,,,,,,,,,s,001,2021_Jul_12_1654,toilet,2021.1.3,99.88822517845452,
0,180,4,-4,0.94,,,,,1,0,1,0,0,15,15,22,,,,,,,,,,,,,,,,,,,,,,,621.2601767999586,None,621.2601767999586,None,620.7599164999556,None,j,1.1116360999876633,621.2601767999586,None,,,,,,,,,,,,,s,001,2021_Jul_12_1654,toilet,2021.1.3,99.88822517845452,
180,0,-4,4,1.0,,,,,1,0,1,0,0,16,16,45,,,,,,,,,,,,,,,,,,,,,,,623.3716061000014,None,623.3716061000014,None,622.8712831999874,None,f,1.256171700078994,623.3716061000014,None,,,,,,,,,,,,,s,001,2021_Jul_12_1654,toilet,2021.1.3,99.88822517845452,
180,180,4,-4,1.06,,,,,1,0,1,0,0,17,17,40,,,,,,,,,,,,,,,,,,,,,,,625.6331397999311,None,625.6331397999311,None,625.1328062999528,None,f,1.4268921000184491,625.6331397999311,None,,,,,,,,,,,,,s,001,2021_Jul_12_1654,toilet,2021.1.3,99.88822517845452,
0,180,4,-4,1.15,,,,,1,0,1,0,0,18,18,27,,,,,,,,,,,,,,,,,,,,,,,628.0747946000192,None,628.0747946000192,None,627.5744724000106,None,f,1.0651403999654576,628.0747946000192,None,,,,,,,,,,,,,s,001,2021_Jul_12_1654,toilet,2021.1.3,99.88822517845452,
180,180,4,-4,0.97,,,,,1,0,1,0,0,19,19,37,,,,,,,,,,,,,,,,,,,,,,,630.1562229999108,None,630.1562229999108,None,629.6559485999169,None,j,0.807555399951525,630.1562229999108,None,,,,,,,,,,,,,s,001,2021_Jul_12_1654,toilet,2021.1.3,99.88822517845452,
180,0,-4,4,1.15,,,,,1,0,1,0,0,20,20,48,,,,,,,,,,,,,,,,,,,,,,,631.9674384000245,None,631.9674384000245,None,631.4671018000226,None,j,0.9004955999553204,631.9674384000245,None,,,,,,,,,,,,,s,001,2021_Jul_12_1654,toilet,2021.1.3,99.88822517845452,
0,180,-4,4,1.15,,,,,1,0,1,0,0,21,21,20,,,,,,,,,,,,,,,,,,,,,,,633.878734299913,None,633.878734299913,None,633.3783972000238,None,j,1.3411441999487579,633.878734299913,None,,,,,,,,,,,,,s,001,2021_Jul_12_1654,toilet,2021.1.3,99.88822517845452,
0,0,-4,4,1.03,,,,,1,0,1,0,0,22,22,4,,,,,,,,,,,,,,,,,,,,,,,636.2203976999735,None,636.2203976999735,None,635.7200697999215,None,f,1.751394100021571,636.2203976999735,None,,,,,,,,,,,,,s,001,2021_Jul_12_1654,toilet,2021.1.3,99.88822517845452,
180,180,4,-4,1.15,,,,,1,0,1,0,0,23,23,41,,,,,,,,,,,,,,,,,,,,,,,638.9721909000073,None,638.9721909000073,None,638.4718431999208,None,f,0.6480951000703499,638.9721909000073,None,,,,,,,,,,,,,s,001,2021_Jul_12_1654,toilet,2021.1.3,99.88822517845452,
0,0,4,-4,0.94,,,,,1,0,1,0,0,24,24,8,,,,,,,,,,,,,,,,,,,,,,,640.6433211999247,None,640.6433211999247,None,640.142980900011,None,j,1.3766116000479087,640.6433211999247,None,,,,,,,,,,,,,s,001,2021_Jul_12_1654,toilet,2021.1.3,99.88822517845452,
180,0,-4,4,0.97,,,,,1,0,1,0,0,25,25,44,,,,,,,,,,,,,,,,,,,,,,,643.0250363999512,None,643.0250363999512,None,642.5346601000056,None,f,4.611047900049016,643.0250363999512,None,,,,,,,,,,,,,s,001,2021_Jul_12_1654,toilet,2021.1.3,99.88822517845452,
0,0,-4,4,1.06,,,,,1,0,1,0,0,26,26,5,,,,,,,,,,,,,,,,,,,,,,,648.648749099928,None,648.648749099928,None,648.1484109999146,None,j,0.5073042999720201,648.648749099928,None,,,,,,,,,,,,,s,001,2021_Jul_12_1654,toilet,2021.1.3,99.88822517845452,
180,180,4,-4,0.94,,,,,1,0,1,0,0,27,27,36,,,,,,,,,,,,,,,,,,,,,,,650.1797885999549,None,650.1797885999549,None,649.6794462999096,None,j,0.8961332999169827,650.1797885999549,None,,,,,,,,,,,,,s,001,2021_Jul_12_1654,toilet,2021.1.3,99.88822517845452,
0,180,-4,4,0.94,,,,,1,0,1,0,0,28,28,15,,,,,,,,,,,,,,,,,,,,,,,652.0911145999562,None,652.0911145999562,None,651.5907753999345,None,f,1.3526871000649408,652.0911145999562,None,,,,,,,,,,,,,s,001,2021_Jul_12_1654,toilet,2021.1.3,99.88822517845452,
180,180,-4,4,0.85,,,,,1,0,1,0,0,29,29,28,,,,,,,,,,,,,,,,,,,,,,,654.45268509991,None,654.45268509991,None,653.952346200007,None,f,1.023194000008516,654.45268509991,None,,,,,,,,,,,,,s,001,2021_Jul_12_1654,toilet,2021.1.3,99.88822517845452,
0,0,4,-4,0.85,,,,,1,0,1,0,0,30,30,7,,,,,,,,,,,,,,,,,,,,,,,656.5040794999804,None,656.5040794999804,None,656.0037303999998,None,j,0.7316804000874981,656.5040794999804,None,,,,,,,,,,,,,s,001,2021_Jul_12_1654,toilet,2021.1.3,99.88822517845452,
0,180,-4,4,1.06,,,,,1,0,1,0,0,31,31,19,,,,,,,,,,,,,,,,,,,,,,,658.2353218999924,None,658.2353218999924,None,657.7349071999779,None,j,1.4164502999046817,658.2353218999924,None,,,,,,,,,,,,,s,001,2021_Jul_12_1654,toilet,2021.1.3,99.88822517845452,
0,180,-4,4,0.85,,,,,1,0,1,0,0,32,32,14,,,,,,,,,,,,,,,,,,,,,,,660.6568881999701,None,660.6568881999701,None,660.156549599953,None,f,1.2668615999864414,660.6568881999701,None,,,,,,,,,,,,,s,001,2021_Jul_12_1654,toilet,2021.1.3,99.88822517845452,
0,0,4,-4,1.06,,,,,1,0,1,0,0,33,33,12,,,,,,,,,,,,,,,,,,,,,,,662.9284306999762,None,662.9284306999762,None,662.4280897999415,None,f,1.5554716000333428,662.9284306999762,None,,,,,,,,,,,,,s,001,2021_Jul_12_1654,toilet,2021.1.3,99.88822517845452,
0,180,-4,4,1.03,,,,,1,0,1,0,0,34,34,18,,,,,,,,,,,,,,,,,,,,,,,665.5001744999317,None,665.5001744999317,None,664.9999240000034,None,j,1.6555761999916285,665.5001744999317,None,,,,,,,,,,,,,s,001,2021_Jul_12_1654,toilet,2021.1.3,99.88822517845452,
180,0,-4,4,0.85,,,,,1,0,1,0,0,35,35,42,,,,,,,,,,,,,,,,,,,,,,,668.1619766999502,None,668.1619766999502,None,667.6616384999361,None,f,1.1219243999803439,668.1619766999502,None,,,,,,,,,,,,,s,001,2021_Jul_12_1654,toilet,2021.1.3,99.88822517845452,
0,0,4,-4,1.15,,,,,1,0,1,0,0,36,36,13,,,,,,,,,,,,,,,,,,,,,,,670.2834143999498,None,670.2834143999498,None,669.7830796999624,None,f,0.6164934999542311,670.2834143999498,None,,,,,,,,,,,,,s,001,2021_Jul_12_1654,toilet,2021.1.3,99.88822517845452,
0,180,4,-4,0.97,,,,,1,0,1,0,0,37,37,23,,,,,,,,,,,,,,,,,,,,,,,671.9145612999564,None,671.9145612999564,None,671.4141841999954,None,j,0.8733652000082657,671.9145612999564,None,,,,,,,,,,,,,s,001,2021_Jul_12_1654,toilet,2021.1.3,99.88822517845452,
0,0,-4,4,1.0,,,,,1,0,1,0,0,38,38,3,,,,,,,,,,,,,,,,,,,,,,,673.8058962000068,None,673.8058962000068,None,673.305543399998,None,j,1.1579430000856519,673.8058962000068,None,,,,,,,,,,,,,s,001,2021_Jul_12_1654,toilet,2021.1.3,99.88822517845452,
0,0,-4,4,0.94,,,,,1,0,1,0,0,39,39,1,,,,,,,,,,,,,,,,,,,,,,,675.9672672000015,None,675.9672672000015,None,675.4669264999684,None,f,0.8204742000671104,675.9672672000015,None,,,,,,,,,,,,,s,001,2021_Jul_12_1654,toilet,2021.1.3,99.88822517845452,
180,0,4,-4,1.0,,,,,1,0,1,0,0,40,40,52,,,,,,,,,,,,,,,,,,,,,,,677.7884990000166,None,677.7884990000166,None,677.2881699999562,None,j,1.2232486000284553,677.7884990000166,None,,,,,,,,,,,,,s,001,2021_Jul_12_1654,toilet,2021.1.3,99.88822517845452,
180,0,4,-4,0.85,,,,,1,0,1,0,0,41,41,49,,,,,,,,,,,,,,,,,,,,,,,680.020110399928,None,680.020110399928,None,679.5196753999917,None,j,1.0236654999898747,680.020110399928,None,,,,,,,,,,,,,s,001,2021_Jul_12_1654,toilet,2021.1.3,99.88822517845452,
180,0,4,-4,1.06,,,,,1,0,1,0,0,42,42,54,,,,,,,,,,,,,,,,,,,,,,,682.0613954999717,None,682.0613954999717,None,681.5610576999607,None,f,1.0303845999296755,682.0613954999717,None,,,,,,,,,,,,,s,001,2021_Jul_12_1654,toilet,2021.1.3,99.88822517845452,
0,180,4,-4,1.03,,,,,1,0,1,0,0,43,43,25,,,,,,,,,,,,,,,,,,,,,,,684.0927817999618,None,684.0927817999618,None,683.5924386999104,None,j,1.159042299957946,684.0927817999618,None,,,,,,,,,,,,,s,001,2021_Jul_12_1654,toilet,2021.1.3,99.88822517845452,
180,0,-4,4,1.03,,,,,1,0,1,0,0,44,44,46,,,,,,,,,,,,,,,,,,,,,,,686.2642556999344,None,686.2642556999344,None,685.763920999947,None,j,1.3236151000019163,686.2642556999344,None,,,,,,,,,,,,,s,001,2021_Jul_12_1654,toilet,2021.1.3,99.88822517845452,
180,180,-4,4,0.97,,,,,1,0,1,0,0,45,45,30,,,,,,,,,,,,,,,,,,,,,,,688.595951299998,None,688.595951299998,None,688.0955818999792,None,f,1.0398137999000028,688.595951299998,None,,,,,,,,,,,,,s,001,2021_Jul_12_1654,toilet,2021.1.3,99.88822517845452,
0,0,4,-4,1.03,,,,,1,0,1,0,0,46,46,11,,,,,,,,,,,,,,,,,,,,,,,690.6372152999975,None,690.6372152999975,None,690.1368455999764,None,f,1.238781000021845,690.6372152999975,None,,,,,,,,,,,,,s,001,2021_Jul_12_1654,toilet,2021.1.3,99.88822517845452,
180,180,-4,4,1.06,,,,,1,0,1,0,0,47,47,33,,,,,,,,,,,,,,,,,,,,,,,692.8887370999437,None,692.8887370999437,None,692.3883981999243,None,j,0.779104599962011,692.8887370999437,None,,,,,,,,,,,,,s,001,2021_Jul_12_1654,toilet,2021.1.3,99.88822517845452,
0,180,4,-4,1.0,,,,,1,0,1,0,0,48,48,24,,,,,,,,,,,,,,,,,,,,,,,694.6799588999711,None,694.6799588999711,None,694.1796284000156,None,j,1.5317612999351695,694.6799588999711,None,,,,,,,,,,,,,s,001,2021_Jul_12_1654,toilet,2021.1.3,99.88822517845452,
180,0,4,-4,1.15,,,,,1,0,1,0,0,49,49,55,,,,,,,,,,,,,,,,,,,,,,,697.2116765999235,None,697.2116765999235,None,696.7113355000038,None,f,0.7600371999433264,697.2116765999235,None,,,,,,,,,,,,,s,001,2021_Jul_12_1654,toilet,2021.1.3,99.88822517845452,
0,180,-4,4,0.97,,,,,1,0,1,0,0,50,50,16,,,,,,,,,,,,,,,,,,,,,,,698.9728677999228,None,698.9728677999228,None,698.4725299999118,None,j,0.9190014000050724,698.9728677999228,None,,,,,,,,,,,,,s,001,2021_Jul_12_1654,toilet,2021.1.3,99.88822517845452,
0,0,-4,4,0.85,,,,,1,0,1,0,0,51,51,0,,,,,,,,,,,,,,,,,,,,,,,700.9041825999739,None,700.9041825999739,None,700.4038409999339,None,f,0.7795607000589371,700.9041825999739,None,,,,,,,,,,,,,s,001,2021_Jul_12_1654,toilet,2021.1.3,99.88822517845452,
0,0,-4,4,1.15,,,,,1,0,1,0,0,52,52,6,,,,,,,,,,,,,,,,,,,,,,,702.6854644999839,None,702.6854644999839,None,702.1851267999737,None,j,0.5183514999225736,702.6854644999839,None,,,,,,,,,,,,,s,001,2021_Jul_12_1654,toilet,2021.1.3,99.88822517845452,
180,180,4,-4,1.03,,,,,1,0,1,0,0,53,53,39,,,,,,,,,,,,,,,,,,,,,,,704.2164227999747,None,704.2164227999747,None,703.7161536000203,None,f,0.9073518000077456,704.2164227999747,None,,,,,,,,,,,,,s,001,2021_Jul_12_1654,toilet,2021.1.3,99.88822517845452,
180,0,4,-4,1.03,,,,,1,0,1,0,0,54,54,53,,,,,,,,,,,,,,,,,,,,,,,706.1277290999424,None,706.1277290999424,None,705.6273794999579,None,j,0.9642257000086829,706.1277290999424,None,,,,,,,,,,,,,s,001,2021_Jul_12_1654,toilet,2021.1.3,99.88822517845452,
180,0,4,-4,0.94,,,,,1,0,1,0,0,55,55,50,,,,,,,,,,,,,,,,,,,,,,,708.109061999945,None,708.109061999945,None,707.6087232999271,None,j,1.1107502999948338,708.109061999945,None,,,,,,,,,,,,,s,001,2021_Jul_12_1654,toilet,2021.1.3,99.88822517845452,
0,180,4,-4,0.97,,,,,1,0,1,0,1,0,56,23,,,,,,,,,,,,,,,,,,,,,,,710.2205303999363,None,710.2205303999363,None,709.7302334000124,None,j,1.0953465000493452,710.2205303999363,None,,,,,,,,,,,,,s,001,2021_Jul_12_1654,toilet,2021.1.3,99.88822517845452,
180,180,-4,4,1.03,,,,,1,0,1,0,1,1,57,32,,,,,,,,,,,,,,,,,,,,,,,712.3219171999954,None,712.3219171999954,None,711.821578699979,None,j,1.601931200013496,712.3219171999954,None,,,,,,,,,,,,,s,001,2021_Jul_12_1654,toilet,2021.1.3,99.88822517845452,
180,180,4,-4,1.06,,,,,1,0,1,0,1,2,58,40,,,,,,,,,,,,,,,,,,,,,,,714.9336924999952,None,714.9336924999952,None,714.4333525999682,None,f,0.9581252000061795,714.9336924999952,None,,,,,,,,,,,,,s,001,2021_Jul_12_1654,toilet,2021.1.3,99.88822517845452,
180,180,4,-4,1.0,,,,,1,0,1,0,1,3,59,38,,,,,,,,,,,,,,,,,,,,,,,716.9050284000114,None,716.9050284000114,None,716.4047773999628,None,f,1.7867030000779778,716.9050284000114,None,,,,,,,,,,,,,s,001,2021_Jul_12_1654,toilet,2021.1.3,99.88822517845452,
0,180,4,-4,0.85,,,,,1,0,1,0,1,4,60,21,,,,,,,,,,,,,,,,,,,,,,,719.6969204000197,None,719.6969204000197,None,719.196581199998,None,j,0.642882899963297,719.6969204000197,None,,,,,,,,,,,,,s,001,2021_Jul_12_1654,toilet,2021.1.3,99.88822517845452,
0,0,-4,4,0.85,,,,,1,0,1,0,1,5,61,0,,,,,,,,,,,,,,,,,,,,,,,721.348035999923,None,721.348035999923,None,720.84770319995,None,f,0.6079154999461025,721.348035999923,None,,,,,,,,,,,,,s,001,2021_Jul_12_1654,toilet,2021.1.3,99.88822517845452,
0,180,-4,4,1.15,,,,,1,0,1,0,1,6,62,20,,,,,,,,,,,,,,,,,,,,,,,722.9691356999101,None,722.9691356999101,None,722.468801299925,None,j,0.442709399969317,722.9691356999101,None,,,,,,,,,,,,,s,001,2021_Jul_12_1654,toilet,2021.1.3,99.88822517845452,
0,0,4,-4,1.15,,,,,1,0,1,0,1,7,63,13,,,,,,,,,,,,,,,,,,,,,,,724.4202112000203,None,724.4202112000203,None,723.919777299976,None,f,0.4796372000128031,724.4202112000203,None,,,,,,,,,,,,,s,001,2021_Jul_12_1654,toilet,2021.1.3,99.88822517845452,
0,0,4,-4,1.0,,,,,1,0,1,0,1,8,64,10,,,,,,,,,,,,,,,,,,,,,,,725.9011463000206,None,725.9011463000206,None,725.4008760999423,None,j,0.8066288999980316,725.9011463000206,None,,,,,,,,,,,,,s,001,2021_Jul_12_1654,toilet,2021.1.3,99.88822517845452,
180,0,-4,4,0.97,,,,,1,0,1,0,1,9,65,44,,,,,,,,,,,,,,,,,,,,,,,727.7123628999107,None,727.7123628999107,None,727.2120075999992,None,j,1.7794856999535114,727.7123628999107,None,,,,,,,,,,,,,s,001,2021_Jul_12_1654,toilet,2021.1.3,99.88822517845452,
0,0,-4,4,1.0,,,,,1,0,1,0,1,10,66,3,,,,,,,,,,,,,,,,,,,,,,,730.5042476999806,None,730.5042476999806,None,730.0039104999742,None,j,1.035725900088437,730.5042476999806,None,,,,,,,,,,,,,s,001,2021_Jul_12_1654,toilet,2021.1.3,99.88822517845452,
180,0,-4,4,1.0,,,,,1,0,1,0,1,11,67,45,,,,,,,,,,,,,,,,,,,,,,,732.555655199918,None,732.555655199918,None,732.0553877999773,None,j,1.2080753999762237,732.555655199918,None,,,,,,,,,,,,,s,001,2021_Jul_12_1654,toilet,2021.1.3,99.88822517845452,
180,0,4,-4,1.0,,,,,1,0,1,0,1,12,68,52,,,,,,,,,,,,,,,,,,,,,,,734.7671332999598,None,734.7671332999598,None,734.2668032000074,None,f,0.8686491999542341,734.7671332999598,None,,,,,,,,,,,,,s,001,2021_Jul_12_1654,toilet,2021.1.3,99.88822517845452,
180,180,-4,4,0.97,,,,,1,0,1,0,1,13,69,30,,,,,,,,,,,,,,,,,,,,,,,736.6384093000088,None,736.6384093000088,None,736.1380676999688,None,f,0.9975857000099495,736.6384093000088,None,,,,,,,,,,,,,s,001,2021_Jul_12_1654,toilet,2021.1.3,99.88822517845452,
180,180,4,-4,1.15,,,,,1,0,1,0,1,14,70,41,,,,,,,,,,,,,,,,,,,,,,,738.6598521999549,None,738.6598521999549,None,738.1594454000005,None,f,1.1999560999684036,738.6598521999549,None,,,,,,,,,,,,,s,001,2021_Jul_12_1654,toilet,2021.1.3,99.88822517845452,
180,180,-4,4,1.06,,,,,1,0,1,0,1,15,71,33,,,,,,,,,,,,,,,,,,,,,,,740.8712764999364,None,740.8712764999364,None,740.371061499929,None,j,0.7804504999658093,740.8712764999364,None,,,,,,,,,,,,,s,001,2021_Jul_12_1654,toilet,2021.1.3,99.88822517845452,
180,0,-4,4,0.85,,,,,1,0,1,0,1,16,72,42,,,,,,,,,,,,,,,,,,,,,,,742.6524853999726,None,742.6524853999726,None,742.1521441999357,None,f,1.0475590999703854,742.6524853999726,None,,,,,,,,,,,,,s,001,2021_Jul_12_1654,toilet,2021.1.3,99.88822517845452,
0,0,4,-4,0.97,,,,,1,0,1,0,1,17,73,9,,,,,,,,,,,,,,,,,,,,,,,744.7138844999718,None,744.7138844999718,None,744.2135526000056,None,j,0.9538803000468761,744.7138844999718,None,,,,,,,,,,,,,s,001,2021_Jul_12_1654,toilet,2021.1.3,99.88822517845452,
180,180,-4,4,0.85,,,,,1,0,1,0,1,18,74,28,,,,,,,,,,,,,,,,,,,,,,,746.6752859000117,None,746.6752859000117,None,746.1848780999426,None,f,0.896450600004755,746.6752859000117,None,,,,,,,,,,,,,s,001,2021_Jul_12_1654,toilet,2021.1.3,99.88822517845452,
0,180,-4,4,0.94,,,,,1,0,1,0,1,19,75,15,,,,,,,,,,,,,,,,,,,,,,,748.5765006999718,None,748.5765006999718,None,748.0761759999441,None,f,2.13125780003611,748.5765006999718,None,,,,,,,,,,,,,s,001,2021_Jul_12_1654,toilet,2021.1.3,99.88822517845452,
180,0,4,-4,1.15,,,,,1,0,1,0,1,20,76,55,,,,,,,,,,,,,,,,,,,,,,,751.7186319999164,None,751.7186319999164,None,751.2182907999959,None,f,0.7650790000334382,751.7186319999164,None,,,,,,,,,,,,,s,001,2021_Jul_12_1654,toilet,2021.1.3,99.88822517845452,
0,180,-4,4,1.06,,,,,1,0,1,0,1,21,77,19,,,,,,,,,,,,,,,,,,,,,,,753.4999192999676,None,753.4999192999676,None,752.9995084999828,None,j,0.6798666999675333,753.4999192999676,None,,,,,,,,,,,,,s,001,2021_Jul_12_1654,toilet,2021.1.3,99.88822517845452,
180,0,-4,4,1.06,,,,,1,0,1,0,1,22,78,47,,,,,,,,,,,,,,,,,,,,,,,755.1909934999421,None,755.1909934999421,None,754.6907362999627,None,j,1.0206903999205679,755.1909934999421,None,,,,,,,,,,,,,s,001,2021_Jul_12_1654,toilet,2021.1.3,99.88822517845452,
0,180,4,-4,1.0,,,,,1,0,1,0,1,23,79,24,,,,,,,,,,,,,,,,,,,,,,,757.2123598000035,None,757.2123598000035,None,756.7120159999467,None,j,2.391541799996048,757.2123598000035,None,,,,,,,,,,,,,s,001,2021_Jul_12_1654,toilet,2021.1.3,99.88822517845452,
180,180,4,-4,0.97,,,,,1,0,1,0,1,24,80,37,,,,,,,,,,,,,,,,,,,,,,,760.6146638999926,None,760.6146638999926,None,760.1143281999975,None,j,1.7091361000202596,760.6146638999926,None,,,,,,,,,,,,,s,001,2021_Jul_12_1654,toilet,2021.1.3,99.88822517845452,
180,0,-4,4,1.15,,,,,1,0,1,0,1,25,81,48,,,,,,,,,,,,,,,,,,,,,,,763.3264993999619,None,763.3264993999619,None,762.8261676999973,None,j,0.565224599908106,763.3264993999619,None,,,,,,,,,,,,,s,001,2021_Jul_12_1654,toilet,2021.1.3,99.88822517845452,
0,180,4,-4,1.03,,,,,1,0,1,0,1,26,82,25,,,,,,,,,,,,,,,,,,,,,,,764.8975634999806,None,764.8975634999806,None,764.3972331999103,None,f,2.91436340007931,764.8975634999806,None,,,,,,,,,,,,,s,001,2021_Jul_12_1654,toilet,2021.1.3,99.88822517845452,
0,0,4,-4,0.85,,,,,1,0,1,0,1,27,83,7,,,,,,,,,,,,,,,,,,,,,,,768.8403392999899,None,768.8403392999899,None,768.3399057999486,None,j,0.8274453999474645,768.8403392999899,None,,,,,,,,,,,,,s,001,2021_Jul_12_1654,toilet,2021.1.3,99.88822517845452,
180,0,4,-4,1.06,,,,,1,0,1,0,1,28,84,54,,,,,,,,,,,,,,,,,,,,,,,770.6814822999295,None,770.6814822999295,None,770.1811427000212,None,f,1.5143507999600843,770.6814822999295,None,,,,,,,,,,,,,s,001,2021_Jul_12_1654,toilet,2021.1.3,99.88822517845452,
180,0,4,-4,1.03,,,,,1,0,1,0,1,29,85,53,,,,,,,,,,,,,,,,,,,,,,,773.2031962999608,None,773.2031962999608,None,772.7028530999087,None,f,1.3767459999071434,773.2031962999608,None,,,,,,,,,,,,,s,001,2021_Jul_12_1654,toilet,2021.1.3,99.88822517845452,
0,0,-4,4,0.94,,,,,1,0,1,0,1,30,86,1,,,,,,,,,,,,,,,,,,,,,,,775.5949134000111,None,775.5949134000111,None,775.0944803999737,None,f,1.0969015000155196,775.5949134000111,None,,,,,,,,,,,,,s,001,2021_Jul_12_1654,toilet,2021.1.3,99.88822517845452,
0,180,4,-4,1.06,,,,,1,0,1,0,1,31,87,26,,,,,,,,,,,,,,,,,,,,,,,777.7062520999461,None,777.7062520999461,None,777.2059848000063,None,j,1.657456299988553,777.7062520999461,None,,,,,,,,,,,,,s,001,2021_Jul_12_1654,toilet,2021.1.3,99.88822517845452,
180,180,-4,4,0.94,,,,,1,0,1,0,1,32,88,29,,,,,,,,,,,,,,,,,,,,,,,780.368053299957,None,780.368053299957,None,779.8677176999627,None,f,0.8358210999285802,780.368053299957,None,,,,,,,,,,,,,s,001,2021_Jul_12_1654,toilet,2021.1.3,99.88822517845452,
180,0,4,-4,0.85,,,,,1,0,1,0,1,33,89,49,,,,,,,,,,,,,,,,,,,,,,,782.2193161000032,None,782.2193161000032,None,781.718979199999,None,j,0.5843846000498161,782.2193161000032,None,,,,,,,,,,,,,s,001,2021_Jul_12_1654,toilet,2021.1.3,99.88822517845452,
0,0,-4,4,0.97,,,,,1,0,1,0,1,34,90,2,,,,,,,,,,,,,,,,,,,,,,,783.8104344999883,None,783.8104344999883,None,783.3100488999626,None,f,2.385310999932699,783.8104344999883,None,,,,,,,,,,,,,s,001,2021_Jul_12_1654,toilet,2021.1.3,99.88822517845452,
180,0,4,-4,0.97,,,,,1,0,1,0,1,35,91,51,,,,,,,,,,,,,,,,,,,,,,,787.2026915999595,None,787.2026915999595,None,786.7023565999698,None,j,1.2330925000132993,787.2026915999595,None,,,,,,,,,,,,,s,001,2021_Jul_12_1654,toilet,2021.1.3,99.88822517845452,
0,180,4,-4,1.15,,,,,1,0,1,0,1,36,92,27,,,,,,,,,,,,,,,,,,,,,,,789.4642222999828,None,789.4642222999828,None,788.9638830999611,None,f,1.019476699992083,789.4642222999828,None,,,,,,,,,,,,,s,001,2021_Jul_12_1654,toilet,2021.1.3,99.88822517845452,
180,180,4,-4,1.03,,,,,1,0,1,0,1,37,93,39,,,,,,,,,,,,,,,,,,,,,,,791.4855992000084,None,791.4855992000084,None,790.985331099946,None,f,1.4781029999721795,791.4855992000084,None,,,,,,,,,,,,,s,001,2021_Jul_12_1654,toilet,2021.1.3,99.88822517845452,
180,0,-4,4,0.94,,,,,1,0,1,0,1,38,94,43,,,,,,,,,,,,,,,,,,,,,,,793.9672764999559,None,793.9672764999559,None,793.466939499951,None,f,1.6204853999661282,793.9672764999559,None,,,,,,,,,,,,,s,001,2021_Jul_12_1654,toilet,2021.1.3,99.88822517845452,
0,0,-4,4,1.15,,,,,1,0,1,0,1,39,95,6,,,,,,,,,,,,,,,,,,,,,,,796.5990623999387,None,796.5990623999387,None,796.0987189000007,None,j,1.3567220999393612,796.5990623999387,None,,,,,,,,,,,,,s,001,2021_Jul_12_1654,toilet,2021.1.3,99.88822517845452,
0,180,4,-4,0.94,,,,,1,0,1,0,1,40,96,22,,,,,,,,,,,,,,,,,,,,,,,798.9607346999692,None,798.9607346999692,None,798.4604104999453,None,j,1.8269692999310791,798.9607346999692,None,,,,,,,,,,,,,s,001,2021_Jul_12_1654,toilet,2021.1.3,99.88822517845452,
0,180,-4,4,1.0,,,,,1,0,1,0,1,41,97,17,,,,,,,,,,,,,,,,,,,,,,,801.7925833999179,None,801.7925833999179,None,801.292242800002,None,f,1.4432151999790221,801.7925833999179,None,,,,,,,,,,,,,s,001,2021_Jul_12_1654,toilet,2021.1.3,99.88822517845452,
0,0,4,-4,0.94,,,,,1,0,1,0,1,42,98,8,,,,,,,,,,,,,,,,,,,,,,,804.2542535000248,None,804.2542535000248,None,803.7539095999673,None,j,1.157528099953197,804.2542535000248,None,,,,,,,,,,,,,s,001,2021_Jul_12_1654,toilet,2021.1.3,99.88822517845452,
0,0,4,-4,1.06,,,,,1,0,1,0,1,43,99,12,,,,,,,,,,,,,,,,,,,,,,,806.4158067000099,None,806.4158067000099,None,805.9154529999942,None,f,1.2198499999940395,806.4158067000099,None,,,,,,,,,,,,,s,001,2021_Jul_12_1654,toilet,2021.1.3,99.88822517845452,
180,180,4,-4,0.85,,,,,1,0,1,0,1,44,100,35,,,,,,,,,,,,,,,,,,,,,,,808.6372213999275,None,808.6372213999275,None,808.1368800000055,None,j,1.3026760999346152,808.6372213999275,None,,,,,,,,,,,,,s,001,2021_Jul_12_1654,toilet,2021.1.3,99.88822517845452,
0,0,4,-4,1.03,,,,,1,0,1,0,1,45,101,11,,,,,,,,,,,,,,,,,,,,,,,810.9587954999879,None,810.9587954999879,None,810.458463500021,None,f,1.5089822000591084,810.9587954999879,None,,,,,,,,,,,,,s,001,2021_Jul_12_1654,toilet,2021.1.3,99.88822517845452,
0,0,-4,4,1.03,,,,,1,0,1,0,1,46,102,4,,,,,,,,,,,,,,,,,,,,,,,813.480675800005,None,813.480675800005,None,812.9802562999539,None,j,1.9470036999555305,813.480675800005,None,,,,,,,,,,,,,s,001,2021_Jul_12_1654,toilet,2021.1.3,99.88822517845452,
0,180,-4,4,1.03,,,,,1,0,1,0,1,47,103,18,,,,,,,,,,,,,,,,,,,,,,,816.432501800009,None,816.432501800009,None,815.9321591999615,None,j,1.3475526999682188,816.432501800009,None,,,,,,,,,,,,,s,001,2021_Jul_12_1654,toilet,2021.1.3,99.88822517845452,
0,180,-4,4,0.85,,,,,1,0,1,0,1,48,104,14,,,,,,,,,,,,,,,,,,,,,,,818.7941100000171,None,818.7941100000171,None,818.2937583000166,None,f,0.9376881000353023,818.7941100000171,None,,,,,,,,,,,,,s,001,2021_Jul_12_1654,toilet,2021.1.3,99.88822517845452,
180,180,4,-4,0.94,,,,,1,0,1,0,1,49,105,36,,,,,,,,,,,,,,,,,,,,,,,820.7454351999331,None,820.7454351999331,None,820.2451640999643,None,j,0.9544378999853507,820.7454351999331,None,,,,,,,,,,,,,s,001,2021_Jul_12_1654,toilet,2021.1.3,99.88822517845452,
180,0,4,-4,0.94,,,,,1,0,1,0,1,50,106,50,,,,,,,,,,,,,,,,,,,,,,,822.7167676999234,None,822.7167676999234,None,822.2164296999108,None,j,3.1110079999780282,822.7167676999234,None,,,,,,,,,,,,,s,001,2021_Jul_12_1654,toilet,2021.1.3,99.88822517845452,
180,0,-4,4,1.03,,,,,1,0,1,0,1,51,107,46,,,,,,,,,,,,,,,,,,,,,,,826.8395601999946,None,826.8395601999946,None,826.3392274000216,None,j,1.6442732000723481,826.8395601999946,None,,,,,,,,,,,,,s,001,2021_Jul_12_1654,toilet,2021.1.3,99.88822517845452,
0,0,-4,4,1.06,,,,,1,0,1,0,1,52,108,5,,,,,,,,,,,,,,,,,,,,,,,829.5013767000055,None,829.5013767000055,None,829.0010223999852,None,j,0.9343325999798253,829.5013767000055,None,,,,,,,,,,,,,s,001,2021_Jul_12_1654,toilet,2021.1.3,99.88822517845452,
180,180,-4,4,1.15,,,,,1,0,1,0,1,53,109,34,,,,,,,,,,,,,,,,,,,,,,,831.442683900008,None,831.442683900008,None,830.942341899965,None,j,0.8650560000678524,831.442683900008,None,,,,,,,,,,,,,s,001,2021_Jul_12_1654,toilet,2021.1.3,99.88822517845452,
180,180,-4,4,1.0,,,,,1,0,1,0,1,54,110,31,,,,,,,,,,,,,,,,,,,,,,,833.3139480999671,None,833.3139480999671,None,832.8136075999355,None,f,0.7219308998901397,833.3139480999671,None,,,,,,,,,,,,,s,001,2021_Jul_12_1654,toilet,2021.1.3,99.88822517845452,
0,180,-4,4,0.97,,,,,1,0,1,0,1,55,111,16,,,,,,,,,,,,,,,,,,,,,,,835.0552201999817,None,835.0552201999817,None,834.5548235999886,None,f,1.412588999955915,835.0552201999817,None,,,,,,,,,,,,,s,001,2021_Jul_12_1654,toilet,2021.1.3,99.88822517845452,
,,,,,,,,,1,0,1,0,,,,,,,,,,,,,,,,,,,,,,,,,,,,,,,,,,,,,836.4861062999116,None,space,1.1655742999864742,836.4861062999116,None,,,,,,,s,001,2021_Jul_12_1654,toilet,2021.1.3,99.88822517845452,
0,180,-4,4,1.03,,,,,2,0,2,0,0,0,0,18,,,,,,,,,,,,,,,,,837.667016100022,None,space,0.5927643000613898,837.667016100022,None,839.2779948000098,None,839.2779948000098,None,838.7776555999881,None,j,0.9979082000209019,839.2779948000098,None,,,,,,,,,,,,,s,001,2021_Jul_12_1654,toilet,2021.1.3,99.88822517845452,
180,0,-4,4,0.97,,,,,2,0,2,0,0,1,1,44,,,,,,,,,,,,,,,,,,,,,,,841.2893582999241,None,841.2893582999241,None,840.7890211999184,None,f,0.7783460000064224,841.2893582999241,None,,,,,,,,,,,,,s,001,2021_Jul_12_1654,toilet,2021.1.3,99.88822517845452,
180,0,4,-4,0.97,,,,,2,0,2,0,0,2,2,51,,,,,,,,,,,,,,,,,,,,,,,843.0706581999548,None,843.0706581999548,None,842.5702982000075,None,j,0.9650181999895722,843.0706581999548,None,,,,,,,,,,,,,s,001,2021_Jul_12_1654,toilet,2021.1.3,99.88822517845452,
0,0,4,-4,0.85,,,,,2,0,2,0,0,3,3,7,,,,,,,,,,,,,,,,,,,,,,,845.0419180999743,None,845.0419180999743,None,844.5415614999365,None,j,0.7697319000726566,845.0419180999743,None,,,,,,,,,,,,,s,001,2021_Jul_12_1654,toilet,2021.1.3,99.88822517845452,
0,180,-4,4,1.0,,,,,2,0,2,0,0,4,4,17,,,,,,,,,,,,,,,,,,,,,,,846.8131097999867,None,846.8131097999867,None,846.3127654999262,None,f,1.1106888999929652,846.8131097999867,None,,,,,,,,,,,,,s,001,2021_Jul_12_1654,toilet,2021.1.3,99.88822517845452,
0,0,4,-4,1.15,,,,,2,0,2,0,0,5,5,13,,,,,,,,,,,,,,,,,,,,,,,848.9345509000123,None,848.9345509000123,None,848.4341998000164,None,f,0.8611825000261888,848.9345509000123,None,,,,,,,,,,,,,s,001,2021_Jul_12_1654,toilet,2021.1.3,99.88822517845452,
0,0,-4,4,0.85,,,,,2,0,2,0,0,6,6,0,,,,,,,,,,,,,,,,,,,,,,,850.8058120999485,None,850.8058120999485,None,850.3055555999745,None,f,0.6378651999402791,850.8058120999485,None,,,,,,,,,,,,,s,001,2021_Jul_12_1654,toilet,2021.1.3,99.88822517845452,
180,0,-4,4,0.94,,,,,2,0,2,0,0,7,7,43,,,,,,,,,,,,,,,,,,,,,,,852.4469211999094,None,852.4469211999094,None,851.946586499922,None,f,1.284895300050266,852.4469211999094,None,,,,,,,,,,,,,s,001,2021_Jul_12_1654,toilet,2021.1.3,99.88822517845452,
0,180,-4,4,0.94,,,,,2,0,2,0,0,8,8,15,,,,,,,,,,,,,,,,,,,,,,,854.7484803999541,None,854.7484803999541,None,854.248143899953,None,f,1.1275225999997929,854.7484803999541,None,,,,,,,,,,,,,s,001,2021_Jul_12_1654,toilet,2021.1.3,99.88822517845452,
0,180,-4,4,0.97,,,,,2,0,2,0,0,9,9,16,,,,,,,,,,,,,,,,,,,,,,,856.8899375000037,None,856.8899375000037,None,856.3896114999661,None,f,1.1298106000758708,856.8899375000037,None,,,,,,,,,,,,,s,001,2021_Jul_12_1654,toilet,2021.1.3,99.88822517845452,
0,180,-4,4,1.06,,,,,2,0,2,0,0,10,10,19,,,,,,,,,,,,,,,,,,,,,,,859.0313816999551,None,859.0313816999551,None,858.5311467999127,None,j,0.7644749999744818,859.0313816999551,None,,,,,,,,,,,,,s,001,2021_Jul_12_1654,toilet,2021.1.3,99.88822517845452,
180,0,4,-4,0.85,,,,,2,0,2,0,0,11,11,49,,,,,,,,,,,,,,,,,,,,,,,860.8025883999653,None,860.8025883999653,None,860.302248199936,None,j,0.7212950999382883,860.8025883999653,None,,,,,,,,,,,,,s,001,2021_Jul_12_1654,toilet,2021.1.3,99.88822517845452,
180,0,-4,4,1.0,,,,,2,0,2,0,0,12,12,45,,,,,,,,,,,,,,,,,,,,,,,862.5337608999107,None,862.5337608999107,None,862.0334255999187,None,f,1.1180152000160888,862.5337608999107,None,,,,,,,,,,,,,s,001,2021_Jul_12_1654,toilet,2021.1.3,99.88822517845452,
180,180,-4,4,0.97,,,,,2,0,2,0,0,13,13,30,,,,,,,,,,,,,,,,,,,,,,,864.6652043999638,None,864.6652043999638,None,864.1649652000051,None,f,1.0984760998981073,864.6652043999638,None,,,,,,,,,,,,,s,001,2021_Jul_12_1654,toilet,2021.1.3,99.88822517845452,
180,0,-4,4,1.03,,,,,2,0,2,0,0,14,14,46,,,,,,,,,,,,,,,,,,,,,,,866.7666324999882,None,866.7666324999882,None,866.2662968999939,None,j,1.0770650000777096,866.7666324999882,None,,,,,,,,,,,,,s,001,2021_Jul_12_1654,toilet,2021.1.3,99.88822517845452,
180,180,-4,4,1.03,,,,,2,0,2,0,0,15,15,32,,,,,,,,,,,,,,,,,,,,,,,868.8480399999535,None,868.8480399999535,None,868.3477298999205,None,j,1.2358258999884129,868.8480399999535,None,,,,,,,,,,,,,s,001,2021_Jul_12_1654,toilet,2021.1.3,99.88822517845452,
180,180,4,-4,0.97,,,,,2,0,2,0,0,16,16,37,,,,,,,,,,,,,,,,,,,,,,,871.1095872999867,None,871.1095872999867,None,870.6092360999901,None,j,0.9101666000206023,871.1095872999867,None,,,,,,,,,,,,,s,001,2021_Jul_12_1654,toilet,2021.1.3,99.88822517845452,
0,180,4,-4,0.97,,,,,2,0,2,0,0,17,17,23,,,,,,,,,,,,,,,,,,,,,,,873.0309200999327,None,873.0309200999327,None,872.5305434999755,None,j,1.100702500087209,873.0309200999327,None,,,,,,,,,,,,,s,001,2021_Jul_12_1654,toilet,2021.1.3,99.88822517845452,
180,180,4,-4,1.15,,,,,2,0,2,0,0,18,18,41,,,,,,,,,,,,,,,,,,,,,,,875.1323008999461,None,875.1323008999461,None,874.631966499961,None,f,1.0634764999849722,875.1323008999461,None,,,,,,,,,,,,,s,001,2021_Jul_12_1654,toilet,2021.1.3,99.88822517845452,
180,0,-4,4,1.15,,,,,2,0,2,0,0,19,19,48,,,,,,,,,,,,,,,,,,,,,,,877.2137153999647,None,877.2137153999647,None,876.7133739999263,None,j,0.5819387999363244,877.2137153999647,None,,,,,,,,,,,,,s,001,2021_Jul_12_1654,toilet,2021.1.3,99.88822517845452,
0,0,4,-4,0.97,,,,,2,0,2,0,0,20,20,9,,,,,,,,,,,,,,,,,,,,,,,878.8048737000208,None,878.8048737000208,None,878.3044495999347,None,j,1.166862600017339,878.8048737000208,None,,,,,,,,,,,,,s,001,2021_Jul_12_1654,toilet,2021.1.3,99.88822517845452,
180,0,-4,4,0.85,,,,,2,0,2,0,0,21,21,42,,,,,,,,,,,,,,,,,,,,,,,880.976256199996,None,880.976256199996,None,880.4859641999938,None,f,0.9474908000556752,880.976256199996,None,,,,,,,,,,,,,s,001,2021_Jul_12_1654,toilet,2021.1.3,99.88822517845452,
180,0,4,-4,1.15,,,,,2,0,2,0,0,22,22,55,,,,,,,,,,,,,,,,,,,,,,,882.9275796000147,None,882.9275796000147,None,882.4272424000083,None,f,1.2201093999901786,882.9275796000147,None,,,,,,,,,,,,,s,001,2021_Jul_12_1654,toilet,2021.1.3,99.88822517845452,
0,0,4,-4,1.06,,,,,2,0,2,0,0,23,23,12,,,,,,,,,,,,,,,,,,,,,,,885.1490870999405,None,885.1490870999405,None,884.6487493999302,None,f,1.286594899953343,885.1490870999405,None,,,,,,,,,,,,,s,001,2021_Jul_12_1654,toilet,2021.1.3,99.88822517845452,
0,0,-4,4,0.94,,,,,2,0,2,0,0,24,24,1,,,,,,,,,,,,,,,,,,,,,,,887.4407236999832,None,887.4407236999832,None,886.9403790999204,None,f,1.5709299999289215,887.4407236999832,None,,,,,,,,,,,,,s,001,2021_Jul_12_1654,toilet,2021.1.3,99.88822517845452,
180,180,-4,4,0.94,,,,,2,0,2,0,0,25,25,29,,,,,,,,,,,,,,,,,,,,,,,890.012391999946,None,890.012391999946,None,889.5120492000133,None,f,1.399389199912548,890.012391999946,None,,,,,,,,,,,,,s,001,2021_Jul_12_1654,toilet,2021.1.3,99.88822517845452,
0,0,-4,4,1.06,,,,,2,0,2,0,0,26,26,5,,,,,,,,,,,,,,,,,,,,,,,892.4240226999391,None,892.4240226999391,None,891.9236857999349,None,j,0.9718274999177083,892.4240226999391,None,,,,,,,,,,,,,s,001,2021_Jul_12_1654,toilet,2021.1.3,99.88822517845452,
0,0,-4,4,1.0,,,,,2,0,2,0,0,27,27,3,,,,,,,,,,,,,,,,,,,,,,,894.4054430999095,None,894.4054430999095,None,893.9050363999559,None,j,1.3262245000805706,894.4054430999095,None,,,,,,,,,,,,,s,001,2021_Jul_12_1654,toilet,2021.1.3,99.88822517845452,
0,0,4,-4,1.03,,,,,2,0,2,0,0,28,28,11,,,,,,,,,,,,,,,,,,,,,,,896.7369515999453,None,896.7369515999453,None,896.236609900021,None,f,1.5388771999860182,896.7369515999453,None,,,,,,,,,,,,,s,001,2021_Jul_12_1654,toilet,2021.1.3,99.88822517845452,
180,180,-4,4,0.85,,,,,2,0,2,0,0,29,29,28,,,,,,,,,,,,,,,,,,,,,,,899.2886827000184,None,899.2886827000184,None,898.7883466000203,None,f,1.0029776999726892,899.2886827000184,None,,,,,,,,,,,,,s,001,2021_Jul_12_1654,toilet,2021.1.3,99.88822517845452,
180,180,4,-4,0.94,,,,,2,0,2,0,0,30,30,36,,,,,,,,,,,,,,,,,,,,,,,901.3001253999537,None,901.3001253999537,None,900.7997061000206,None,j,0.927601599949412,901.3001253999537,None,,,,,,,,,,,,,s,001,2021_Jul_12_1654,toilet,2021.1.3,99.88822517845452,
0,180,4,-4,1.06,,,,,2,0,2,0,0,31,31,26,,,,,,,,,,,,,,,,,,,,,,,903.2413569999626,None,903.2413569999626,None,902.7410586000187,None,f,1.5943815999198705,903.2413569999626,None,,,,,,,,,,,,,s,001,2021_Jul_12_1654,toilet,2021.1.3,99.88822517845452,
180,180,4,-4,1.06,,,,,2,0,2,0,0,32,32,40,,,,,,,,,,,,,,,,,,,,,,,905.8431321999524,None,905.8431321999524,None,905.3427924999269,None,f,1.4085282000014558,905.8431321999524,None,,,,,,,,,,,,,s,001,2021_Jul_12_1654,toilet,2021.1.3,99.88822517845452,
180,0,-4,4,1.06,,,,,2,0,2,0,0,33,33,47,,,,,,,,,,,,,,,,,,,,,,,908.2547926999396,None,908.2547926999396,None,907.754420000012,None,j,1.1410344000905752,908.2547926999396,None,,,,,,,,,,,,,s,001,2021_Jul_12_1654,toilet,2021.1.3,99.88822517845452,
0,0,-4,4,1.03,,,,,2,0,2,0,0,34,34,4,,,,,,,,,,,,,,,,,,,,,,,910.3962117999326,None,910.3962117999326,None,909.8959028999088,None,j,1.3034640999976546,910.3962117999326,None,,,,,,,,,,,,,s,001,2021_Jul_12_1654,toilet,2021.1.3,99.88822517845452,
0,0,-4,4,1.15,,,,,2,0,2,0,0,35,35,6,,,,,,,,,,,,,,,,,,,,,,,912.7077745000133,None,912.7077745000133,None,912.2074346999871,None,j,0.8160402000648901,912.7077745000133,None,,,,,,,,,,,,,s,001,2021_Jul_12_1654,toilet,2021.1.3,99.88822517845452,
0,0,4,-4,0.94,,,,,2,0,2,0,0,36,36,8,,,,,,,,,,,,,,,,,,,,,,,914.549026099965,None,914.549026099965,None,914.0486820000224,None,j,1.0387041999492794,914.549026099965,None,,,,,,,,,,,,,s,001,2021_Jul_12_1654,toilet,2021.1.3,99.88822517845452,
0,180,4,-4,1.03,,,,,2,0,2,0,0,37,37,25,,,,,,,,,,,,,,,,,,,,,,,916.6004182000179,None,916.6004182000179,None,916.1001753999153,None,f,1.0992458000546321,916.6004182000179,None,,,,,,,,,,,,,s,001,2021_Jul_12_1654,toilet,2021.1.3,99.88822517845452,
0,0,4,-4,1.0,,,,,2,0,2,0,0,38,38,10,,,,,,,,,,,,,,,,,,,,,,,918.7018373999745,None,918.7018373999745,None,918.2015006999718,None,j,0.8538202000781894,918.7018373999745,None,,,,,,,,,,,,,s,001,2021_Jul_12_1654,toilet,2021.1.3,99.88822517845452,
180,180,4,-4,1.0,,,,,2,0,2,0,0,39,39,38,,,,,,,,,,,,,,,,,,,,,,,920.5631013999227,None,920.5631013999227,None,920.0627610000083,None,f,1.1687003000406548,920.5631013999227,None,,,,,,,,,,,,,s,001,2021_Jul_12_1654,toilet,2021.1.3,99.88822517845452,
0,180,4,-4,0.85,,,,,2,0,2,0,0,40,40,21,,,,,,,,,,,,,,,,,,,,,,,922.7445810999488,None,922.7445810999488,None,922.2442522000056,None,j,0.9230438999366015,922.7445810999488,None,,,,,,,,,,,,,s,001,2021_Jul_12_1654,toilet,2021.1.3,99.88822517845452,
180,0,4,-4,1.0,,,,,2,0,2,0,0,41,41,52,,,,,,,,,,,,,,,,,,,,,,,924.6859308999265,None,924.6859308999265,None,924.1855876999907,None,f,1.1737887999042869,924.6859308999265,None,,,,,,,,,,,,,s,001,2021_Jul_12_1654,toilet,2021.1.3,99.88822517845452,
180,0,4,-4,1.06,,,,,2,0,2,0,0,42,42,54,,,,,,,,,,,,,,,,,,,,,,,926.8674034000142,None,926.8674034000142,None,926.3670349000022,None,f,0.9922979000257328,926.8674034000142,None,,,,,,,,,,,,,s,001,2021_Jul_12_1654,toilet,2021.1.3,99.88822517845452,
0,180,4,-4,1.0,,,,,2,0,2,0,0,43,43,24,,,,,,,,,,,,,,,,,,,,,,,928.8687295999844,None,928.8687295999844,None,928.3683916999726,None,j,1.7269176000263542,928.8687295999844,None,,,,,,,,,,,,,s,001,2021_Jul_12_1654,toilet,2021.1.3,99.88822517845452,
180,0,4,-4,1.03,,,,,2,0,2,0,0,44,44,53,,,,,,,,,,,,,,,,,,,,,,,931.6006682999432,None,931.6006682999432,None,931.1003310999367,None,f,1.0430824999930337,931.6006682999432,None,,,,,,,,,,,,,s,001,2021_Jul_12_1654,toilet,2021.1.3,99.88822517845452,
0,0,-4,4,0.97,,,,,2,0,2,0,0,45,45,2,,,,,,,,,,,,,,,,,,,,,,,933.6519740999211,None,933.6519740999211,None,933.1516342000104,None,f,1.295985299977474,933.6519740999211,None,,,,,,,,,,,,,s,001,2021_Jul_12_1654,toilet,2021.1.3,99.88822517845452,
0,180,-4,4,0.85,,,,,2,0,2,0,0,46,46,14,,,,,,,,,,,,,,,,,,,,,,,935.9635372000048,None,935.9635372000048,None,935.463203500025,None,f,2.0883743000449613,935.9635372000048,None,,,,,,,,,,,,,s,001,2021_Jul_12_1654,toilet,2021.1.3,99.88822517845452,
180,180,4,-4,1.03,,,,,2,0,2,0,0,47,47,39,,,,,,,,,,,,,,,,,,,,,,,939.0656393999234,None,939.0656393999234,None,938.5653856999706,None,f,1.7541948000434786,939.0656393999234,None,,,,,,,,,,,,,s,001,2021_Jul_12_1654,toilet,2021.1.3,99.88822517845452,
180,0,4,-4,0.94,,,,,2,0,2,0,0,48,48,50,,,,,,,,,,,,,,,,,,,,,,,941.8275429999921,None,941.8275429999921,None,941.3271777000045,None,j,0.9122184000443667,941.8275429999921,None,,,,,,,,,,,,,s,001,2021_Jul_12_1654,toilet,2021.1.3,99.88822517845452,
0,180,4,-4,1.15,,,,,2,0,2,0,0,49,49,27,,,,,,,,,,,,,,,,,,,,,,,943.7588290999411,None,943.7588290999411,None,943.258485600003,None,f,0.8210931000066921,943.7588290999411,None,,,,,,,,,,,,,s,001,2021_Jul_12_1654,toilet,2021.1.3,99.88822517845452,
180,180,-4,4,1.06,,,,,2,0,2,0,0,50,50,33,,,,,,,,,,,,,,,,,,,,,,,945.5901430000085,None,945.5901430000085,None,945.0898004999617,None,j,0.7495593000203371,945.5901430000085,None,,,,,,,,,,,,,s,001,2021_Jul_12_1654,toilet,2021.1.3,99.88822517845452,
0,180,4,-4,0.94,,,,,2,0,2,0,0,51,51,22,,,,,,,,,,,,,,,,,,,,,,,947.3512615999207,None,947.3512615999207,None,946.8509573999327,None,j,0.7964008999988437,947.3512615999207,None,,,,,,,,,,,,,s,001,2021_Jul_12_1654,toilet,2021.1.3,99.88822517845452,
180,180,4,-4,0.85,,,,,2,0,2,0,0,52,52,35,,,,,,,,,,,,,,,,,,,,,,,949.1524835999589,None,949.1524835999589,None,948.6521475999616,None,j,0.4512129999930039,949.1524835999589,None,,,,,,,,,,,,,s,001,2021_Jul_12_1654,toilet,2021.1.3,99.88822517845452,
180,180,-4,4,1.0,,,,,2,0,2,0,0,53,53,31,,,,,,,,,,,,,,,,,,,,,,,950.6034667999484,None,950.6034667999484,None,950.1031267999206,None,f,0.8722606999799609,950.6034667999484,None,,,,,,,,,,,,,s,001,2021_Jul_12_1654,toilet,2021.1.3,99.88822517845452,
180,180,-4,4,1.15,,,,,2,0,2,0,0,54,54,34,,,,,,,,,,,,,,,,,,,,,,,952.4848172999918,None,952.4848172999918,None,951.9844024999766,None,j,0.4629933999385685,952.4848172999918,None,,,,,,,,,,,,,s,001,2021_Jul_12_1654,toilet,2021.1.3,99.88822517845452,
0,180,-4,4,1.15,,,,,2,0,2,0,0,55,55,20,,,,,,,,,,,,,,,,,,,,,,,953.965825799969,None,953.965825799969,None,953.4654428999638,None,j,0.6459086999529973,953.965825799969,None,,,,,,,,,,,,,s,001,2021_Jul_12_1654,toilet,2021.1.3,99.88822517845452,
0,180,4,-4,1.06,,,,,2,0,2,0,1,0,56,26,,,,,,,,,,,,,,,,,,,,,,,955.6168637999799,None,955.6168637999799,None,955.1165255999658,None,f,0.7548254000721499,955.6168637999799,None,,,,,,,,,,,,,s,001,2021_Jul_12_1654,toilet,2021.1.3,99.88822517845452,
0,0,4,-4,0.85,,,,,2,0,2,0,1,1,57,7,,,,,,,,,,,,,,,,,,,,,,,957.3780655999435,None,957.3780655999435,None,956.8777188999811,None,j,0.44964050000999123,957.3780655999435,None,,,,,,,,,,,,,s,001,2021_Jul_12_1654,toilet,2021.1.3,99.88822517845452,
0,0,-4,4,1.15,,,,,2,0,2,0,1,2,58,6,,,,,,,,,,,,,,,,,,,,,,,958.83904849994,None,958.83904849994,None,958.3387123999419,None,j,0.540821100003086,958.83904849994,None,,,,,,,,,,,,,s,001,2021_Jul_12_1654,toilet,2021.1.3,99.88822517845452,
0,180,4,-4,1.03,,,,,2,0,2,0,1,3,59,25,,,,,,,,,,,,,,,,,,,,,,,960.3901815999998,None,960.3901815999998,None,959.8897625999525,None,f,0.7816164999967441,960.3901815999998,None,,,,,,,,,,,,,s,001,2021_Jul_12_1654,toilet,2021.1.3,99.88822517845452,
0,0,4,-4,1.03,,,,,2,0,2,0,1,4,60,11,,,,,,,,,,,,,,,,,,,,,,,962.1813138999278,None,962.1813138999278,None,961.6810719999485,None,f,0.8144248999888077,962.1813138999278,None,,,,,,,,,,,,,s,001,2021_Jul_12_1654,toilet,2021.1.3,99.88822517845452,
180,180,-4,4,1.03,,,,,2,0,2,0,1,5,61,32,,,,,,,,,,,,,,,,,,,,,,,964.0025509999832,None,964.0025509999832,None,963.5022114999592,None,f,2.0493156000738963,964.0025509999832,None,,,,,,,,,,,,,s,001,2021_Jul_12_1654,toilet,2021.1.3,99.88822517845452,
0,180,-4,4,1.06,,,,,2,0,2,0,1,6,62,19,,,,,,,,,,,,,,,,,,,,,,,967.0646287999116,None,967.0646287999116,None,966.5642905000132,None,j,0.987112500006333,967.0646287999116,None,,,,,,,,,,,,,s,001,2021_Jul_12_1654,toilet,2021.1.3,99.88822517845452,
180,180,4,-4,1.06,,,,,2,0,2,0,1,7,63,40,,,,,,,,,,,,,,,,,,,,,,,969.0659969999688,None,969.0659969999688,None,968.5656451999675,None,f,1.097621800028719,969.0659969999688,None,,,,,,,,,,,,,s,001,2021_Jul_12_1654,toilet,2021.1.3,99.88822517845452,
0,0,4,-4,1.15,,,,,2,0,2,0,1,8,64,13,,,,,,,,,,,,,,,,,,,,,,,971.1674111000029,None,971.1674111000029,None,970.6670653999317,None,f,1.0602152000647038,971.1674111000029,None,,,,,,,,,,,,,s,001,2021_Jul_12_1654,toilet,2021.1.3,99.88822517845452,
0,0,-4,4,0.97,,,,,2,0,2,0,1,9,65,2,,,,,,,,,,,,,,,,,,,,,,,973.2288036999526,None,973.2288036999526,None,972.7284661999438,None,f,1.9908131000120193,973.2288036999526,None,,,,,,,,,,,,,s,001,2021_Jul_12_1654,toilet,2021.1.3,99.88822517845452,
180,180,-4,4,0.94,,,,,2,0,2,0,1,10,66,29,,,,,,,,,,,,,,,,,,,,,,,976.2208706999663,None,976.2208706999663,None,975.7205886999145,None,f,1.0628370000049472,976.2208706999663,None,,,,,,,,,,,,,s,001,2021_Jul_12_1654,toilet,2021.1.3,99.88822517845452,
0,0,-4,4,1.0,,,,,2,0,2,0,1,11,67,3,,,,,,,,,,,,,,,,,,,,,,,978.2922363999533,None,978.2922363999533,None,977.7919100999134,None,j,1.4394107999978587,978.2922363999533,None,,,,,,,,,,,,,s,001,2021_Jul_12_1654,toilet,2021.1.3,99.88822517845452,
180,180,-4,4,1.06,,,,,2,0,2,0,1,12,68,33,,,,,,,,,,,,,,,,,,,,,,,980.7338970999699,None,980.7338970999699,None,980.233560499968,None,j,0.9177269999636337,980.7338970999699,None,,,,,,,,,,,,,s,001,2021_Jul_12_1654,toilet,2021.1.3,99.88822517845452,
180,180,4,-4,1.0,,,,,2,0,2,0,1,13,69,38,,,,,,,,,,,,,,,,,,,,,,,982.6552879000083,None,982.6552879000083,None,982.1549294999568,None,f,1.5883339000865817,982.6552879000083,None,,,,,,,,,,,,,s,001,2021_Jul_12_1654,toilet,2021.1.3,99.88822517845452,
0,180,4,-4,0.85,,,,,2,0,2,0,1,14,70,21,,,,,,,,,,,,,,,,,,,,,,,985.2469573999988,None,985.2469573999988,None,984.7466155999573,None,j,0.7086642000358552,985.2469573999988,None,,,,,,,,,,,,,s,001,2021_Jul_12_1654,toilet,2021.1.3,99.88822517845452,
0,0,4,-4,1.0,,,,,2,0,2,0,1,15,71,10,,,,,,,,,,,,,,,,,,,,,,,986.9581190999597,None,986.9581190999597,None,986.4577758000232,None,j,1.1576891998993233,986.9581190999597,None,,,,,,,,,,,,,s,001,2021_Jul_12_1654,toilet,2021.1.3,99.88822517845452,
180,0,-4,4,1.03,,,,,2,0,2,0,1,16,72,46,,,,,,,,,,,,,,,,,,,,,,,989.1296678999206,None,989.1296678999206,None,988.6293038999429,None,j,1.1140667999861762,989.1296678999206,None,,,,,,,,,,,,,s,001,2021_Jul_12_1654,toilet,2021.1.3,99.88822517845452,
180,0,-4,4,0.97,,,,,2,0,2,0,1,17,73,44,,,,,,,,,,,,,,,,,,,,,,,991.261058999924,None,991.261058999924,None,990.7607674999163,None,j,1.1105385998962447,991.261058999924,None,,,,,,,,,,,,,s,001,2021_Jul_12_1654,toilet,2021.1.3,99.88822517845452,
180,0,-4,4,0.85,,,,,2,0,2,0,1,18,74,42,,,,,,,,,,,,,,,,,,,,,,,993.3724747999804,None,993.3724747999804,None,992.8721214999678,None,f,0.5992750000441447,993.3724747999804,None,,,,,,,,,,,,,s,001,2021_Jul_12_1654,toilet,2021.1.3,99.88822517845452,
180,0,-4,4,1.06,,,,,2,0,2,0,1,19,75,47,,,,,,,,,,,,,,,,,,,,,,,994.9835588999558,None,994.9835588999558,None,994.4832101999782,None,j,1.580160899902694,994.9835588999558,None,,,,,,,,,,,,,s,001,2021_Jul_12_1654,toilet,2021.1.3,99.88822517845452,
180,0,4,-4,1.06,,,,,2,0,2,0,1,20,76,54,,,,,,,,,,,,,,,,,,,,,,,997.5753532999661,None,997.5753532999661,None,997.074973299983,None,f,1.2762656999984756,997.5753532999661,None,,,,,,,,,,,,,s,001,2021_Jul_12_1654,toilet,2021.1.3,99.88822517845452,
0,0,4,-4,0.94,,,,,2,0,2,0,1,21,77,8,,,,,,,,,,,,,,,,,,,,,,,999.8568555000238,None,999.8568555000238,None,999.3565551999491,None,j,1.5228954999474809,999.8568555000238,None,,,,,,,,,,,,,s,001,2021_Jul_12_1654,toilet,2021.1.3,99.88822517845452,
180,0,4,-4,0.97,,,,,2,0,2,0,1,22,78,51,,,,,,,,,,,,,,,,,,,,,,,1002.3985814999323,None,1002.3985814999323,None,1001.8982397000073,None,j,1.6532291999319568,1002.3985814999323,None,,,,,,,,,,,,,s,001,2021_Jul_12_1654,toilet,2021.1.3,99.88822517845452,
180,0,-4,4,0.94,,,,,2,0,2,0,1,23,79,43,,,,,,,,,,,,,,,,,,,,,,,1005.070468400023,None,1005.070468400023,None,1004.5700505999848,None,f,1.2371149000246078,1005.070468400023,None,,,,,,,,,,,,,s,001,2021_Jul_12_1654,toilet,2021.1.3,99.88822517845452,
180,180,4,-4,1.15,,,,,2,0,2,0,1,24,80,41,,,,,,,,,,,,,,,,,,,,,,,1007.3119174999883,None,1007.3119174999883,None,1006.8115758999484,None,f,1.203808700083755,1007.3119174999883,None,,,,,,,,,,,,,s,001,2021_Jul_12_1654,toilet,2021.1.3,99.88822517845452,
0,0,-4,4,1.03,,,,,2,0,2,0,1,25,81,4,,,,,,,,,,,,,,,,,,,,,,,1009.5334198999917,None,1009.5334198999917,None,1009.0330895999214,None,j,1.894337800098583,1009.5334198999917,None,,,,,,,,,,,,,s,001,2021_Jul_12_1654,toilet,2021.1.3,99.88822517845452,
0,180,4,-4,0.94,,,,,2,0,2,0,1,26,82,22,,,,,,,,,,,,,,,,,,,,,,,1012.4454415999353,None,1012.4454415999353,None,1011.9451247999677,None,j,1.5422651000553742,1012.4454415999353,None,,,,,,,,,,,,,s,001,2021_Jul_12_1654,toilet,2021.1.3,99.88822517845452,
180,0,-4,4,1.15,,,,,2,0,2,0,1,27,83,48,,,,,,,,,,,,,,,,,,,,,,,1014.9871167999227,None,1014.9871167999227,None,1014.4867805999238,None,j,1.4486395999556407,1014.9871167999227,None,,,,,,,,,,,,,s,001,2021_Jul_12_1654,toilet,2021.1.3,99.88822517845452,
180,180,-4,4,0.97,,,,,2,0,2,0,1,28,84,30,,,,,,,,,,,,,,,,,,,,,,,1017.4487839000067,None,1017.4487839000067,None,1016.9484439999796,None,f,1.3068307000212371,1017.4487839000067,None,,,,,,,,,,,,,s,001,2021_Jul_12_1654,toilet,2021.1.3,99.88822517845452,
180,180,-4,4,1.0,,,,,2,0,2,0,1,29,85,31,,,,,,,,,,,,,,,,,,,,,,,1019.7604442000156,None,1019.7604442000156,None,1019.2600889999885,None,j,2.163226700038649,1019.7604442000156,None,,,,,,,,,,,,,s,001,2021_Jul_12_1654,toilet,2021.1.3,99.88822517845452,
0,180,-4,4,1.15,,,,,2,0,2,0,1,30,86,20,,,,,,,,,,,,,,,,,,,,,,,1022.9324991999893,None,1022.9324991999893,None,1022.4321617999813,None,j,1.1352524000685662,1022.9324991999893,None,,,,,,,,,,,,,s,001,2021_Jul_12_1654,toilet,2021.1.3,99.88822517845452,
180,0,4,-4,0.85,,,,,2,0,2,0,1,31,87,49,,,,,,,,,,,,,,,,,,,,,,,1025.0839625999797,None,1025.0839625999797,None,1024.5836299000075,None,j,1.0638013000134379,1025.0839625999797,None,,,,,,,,,,,,,s,001,2021_Jul_12_1654,toilet,2021.1.3,99.88822517845452,
180,180,4,-4,0.94,,,,,2,0,2,0,1,32,88,36,,,,,,,,,,,,,,,,,,,,,,,1027.1754660999868,None,1027.1754660999868,None,1026.6751110999612,None,j,1.116125199943781,1027.1754660999868,None,,,,,,,,,,,,,s,001,2021_Jul_12_1654,toilet,2021.1.3,99.88822517845452,
180,180,4,-4,0.97,,,,,2,0,2,0,1,33,89,37,,,,,,,,,,,,,,,,,,,,,,,1029.2968101999722,None,1029.2968101999722,None,1028.7964692999376,None,j,1.1387632999103516,1029.2968101999722,None,,,,,,,,,,,,,s,001,2021_Jul_12_1654,toilet,2021.1.3,99.88822517845452,
0,0,4,-4,0.97,,,,,2,0,2,0,1,34,90,9,,,,,,,,,,,,,,,,,,,,,,,1031.4382701999275,None,1031.4382701999275,None,1030.9379348999355,None,j,1.685445399954915,1031.4382701999275,None,,,,,,,,,,,,,s,001,2021_Jul_12_1654,toilet,2021.1.3,99.88822517845452,
180,0,4,-4,0.94,,,,,2,0,2,0,1,35,91,50,,,,,,,,,,,,,,,,,,,,,,,1034.1401771999663,None,1034.1401771999663,None,1033.6397628999548,None,j,2.0074624000117183,1034.1401771999663,None,,,,,,,,,,,,,s,001,2021_Jul_12_1654,toilet,2021.1.3,99.88822517845452,
180,180,-4,4,1.15,,,,,2,0,2,0,1,36,92,34,,,,,,,,,,,,,,,,,,,,,,,1037.1521433999296,None,1037.1521433999296,None,1036.65179969999,None,j,0.8835118999704719,1037.1521433999296,None,,,,,,,,,,,,,s,001,2021_Jul_12_1654,toilet,2021.1.3,99.88822517845452,
180,180,4,-4,1.03,,,,,2,0,2,0,1,37,93,39,,,,,,,,,,,,,,,,,,,,,,,1039.0534343000036,None,1039.0534343000036,None,1038.5530923999613,None,f,0.9022258999757469,1039.0534343000036,None,,,,,,,,,,,,,s,001,2021_Jul_12_1654,toilet,2021.1.3,99.88822517845452,
180,0,-4,4,1.0,,,,,2,0,2,0,1,38,94,45,,,,,,,,,,,,,,,,,,,,,,,1040.9648168999702,None,1040.9648168999702,None,1040.464387999964,None,f,1.166984900017269,1040.9648168999702,None,,,,,,,,,,,,,s,001,2021_Jul_12_1654,toilet,2021.1.3,99.88822517845452,
0,180,-4,4,0.85,,,,,2,0,2,0,1,39,95,14,,,,,,,,,,,,,,,,,,,,,,,1043.146204299992,None,1043.146204299992,None,1042.6459502999205,None,f,0.8734679000917822,1043.146204299992,None,,,,,,,,,,,,,s,001,2021_Jul_12_1654,toilet,2021.1.3,99.88822517845452,
0,0,-4,4,0.85,,,,,2,0,2,0,1,40,96,0,,,,,,,,,,,,,,,,,,,,,,,1045.0274816999445,None,1045.0274816999445,None,1044.5271414999152,None,f,1.1202026000246406,1045.0274816999445,None,,,,,,,,,,,,,s,001,2021_Jul_12_1654,toilet,2021.1.3,99.88822517845452,
0,0,-4,4,0.94,,,,,2,0,2,0,1,41,97,1,,,,,,,,,,,,,,,,,,,,,,,1047.1589238999877,None,1047.1589238999877,None,1046.6585795999272,None,f,1.3728797000367194,1047.1589238999877,None,,,,,,,,,,,,,s,001,2021_Jul_12_1654,toilet,2021.1.3,99.88822517845452,
0,180,4,-4,1.15,,,,,2,0,2,0,1,42,98,27,,,,,,,,,,,,,,,,,,,,,,,1049.5506264999276,None,1049.5506264999276,None,1049.0502929999493,None,f,1.0450460000429302,1049.5506264999276,None,,,,,,,,,,,,,s,001,2021_Jul_12_1654,toilet,2021.1.3,99.88822517845452,
0,180,4,-4,1.0,,,,,2,0,2,0,1,43,99,24,,,,,,,,,,,,,,,,,,,,,,,1051.6019377999473,None,1051.6019377999473,None,1051.1015964999096,None,j,1.2017066000262275,1051.6019377999473,None,,,,,,,,,,,,,s,001,2021_Jul_12_1654,toilet,2021.1.3,99.88822517845452,
180,0,4,-4,1.15,,,,,2,0,2,0,1,44,100,55,,,,,,,,,,,,,,,,,,,,,,,1053.803432399989,None,1053.803432399989,None,1053.303094599978,None,f,0.9202458000509068,1053.803432399989,None,,,,,,,,,,,,,s,001,2021_Jul_12_1654,toilet,2021.1.3,99.88822517845452,
180,0,4,-4,1.03,,,,,2,0,2,0,1,45,101,53,,,,,,,,,,,,,,,,,,,,,,,1055.7347347999457,None,1055.7347347999457,None,1055.2344804999884,None,f,2.2049190999241546,1055.7347347999457,None,,,,,,,,,,,,,s,001,2021_Jul_12_1654,toilet,2021.1.3,99.88822517845452,
0,0,-4,4,1.06,,,,,2,0,2,0,1,46,102,5,,,,,,,,,,,,,,,,,,,,,,,1058.946920700022,None,1058.946920700022,None,1058.4465903999517,None,j,0.8486686999676749,1058.946920700022,None,,,,,,,,,,,,,s,001,2021_Jul_12_1654,toilet,2021.1.3,99.88822517845452,
0,180,-4,4,0.97,,,,,2,0,2,0,1,47,103,16,,,,,,,,,,,,,,,,,,,,,,,1060.798172299983,None,1060.798172299983,None,1060.2978362999856,None,f,1.4615263000596315,1060.798172299983,None,,,,,,,,,,,,,s,001,2021_Jul_12_1654,toilet,2021.1.3,99.88822517845452,
0,180,-4,4,0.94,,,,,2,0,2,0,1,48,104,15,,,,,,,,,,,,,,,,,,,,,,,1063.2699195999885,None,1063.2699195999885,None,1062.7695330999559,None,f,1.245802899939008,1063.2699195999885,None,,,,,,,,,,,,,s,001,2021_Jul_12_1654,toilet,2021.1.3,99.88822517845452,
180,180,4,-4,0.85,,,,,2,0,2,0,1,49,105,35,,,,,,,,,,,,,,,,,,,,,,,1065.531377999927,None,1065.531377999927,None,1065.0310368000064,None,j,0.7283146999543533,1065.531377999927,None,,,,,,,,,,,,,s,001,2021_Jul_12_1654,toilet,2021.1.3,99.88822517845452,
0,180,-4,4,1.0,,,,,2,0,2,0,1,50,106,17,,,,,,,,,,,,,,,,,,,,,,,1067.2625531000085,None,1067.2625531000085,None,1066.7622122999746,None,j,1.4450297000585124,1067.2625531000085,None,,,,,,,,,,,,,s,001,2021_Jul_12_1654,toilet,2021.1.3,99.88822517845452,
0,180,4,-4,0.97,,,,,2,0,2,0,1,51,107,23,,,,,,,,,,,,,,,,,,,,,,,1069.7142178999493,None,1069.7142178999493,None,1069.213869499974,None,j,1.0094507000176236,1069.7142178999493,None,,,,,,,,,,,,,s,001,2021_Jul_12_1654,toilet,2021.1.3,99.88822517845452,
0,0,4,-4,1.06,,,,,2,0,2,0,1,52,108,12,,,,,,,,,,,,,,,,,,,,,,,1071.735583600006,None,1071.735583600006,None,1071.2353294999339,None,f,1.0840239999815822,1071.735583600006,None,,,,,,,,,,,,,s,001,2021_Jul_12_1654,toilet,2021.1.3,99.88822517845452,
0,180,-4,4,1.03,,,,,2,0,2,0,1,53,109,18,,,,,,,,,,,,,,,,,,,,,,,1073.8270075999899,None,1073.8270075999899,None,1073.3266596000176,None,j,0.8967093999963254,1073.8270075999899,None,,,,,,,,,,,,,s,001,2021_Jul_12_1654,toilet,2021.1.3,99.88822517845452,
180,180,-4,4,0.85,,,,,2,0,2,0,1,54,110,28,,,,,,,,,,,,,,,,,,,,,,,1075.728286699974,None,1075.728286699974,None,1075.2279499999713,None,f,0.7554469000315294,1075.728286699974,None,,,,,,,,,,,,,s,001,2021_Jul_12_1654,toilet,2021.1.3,99.88822517845452,
180,0,4,-4,1.0,,,,,2,0,2,0,1,55,111,52,,,,,,,,,,,,,,,,,,,,,,,1077.4994920999743,None,1077.4994920999743,None,1076.9991495999275,None,j,1.2081996001070365,1077.4994920999743,None,,,,,,,,,,,,,s,001,2021_Jul_12_1654,toilet,2021.1.3,99.88822517845452,
,,,,,,,,,2,0,2,0,,,,,,,,,,,,,,,,,,,,,,,,,,,,,,,,,,,,,1078.7303688999964,None,space,1.0812440000008792,1078.7303688999964,None,,,,,,,s,001,2021_Jul_12_1654,toilet,2021.1.3,99.88822517845452,
180,0,4,-4,0.97,,,,,3,0,3,0,0,0,0,51,,,,,,,,,,,,,,,,,1079.8311321999645,None,space,0.46065480005927384,1079.8311321999645,None,1081.3020705999807,None,1081.3020705999807,None,1080.8017331999727,None,j,0.8135323000606149,1081.3020705999807,None,,,,,,,,,,,,,s,001,2021_Jul_12_1654,toilet,2021.1.3,99.88822517845452,
0,0,-4,4,0.85,,,,,3,0,3,0,0,1,1,0,,,,,,,,,,,,,,,,,,,,,,,1083.123307599919,None,1083.123307599919,None,1082.6229735999368,None,f,0.8484010000247508,1083.123307599919,None,,,,,,,,,,,,,s,001,2021_Jul_12_1654,toilet,2021.1.3,99.88822517845452,
0,0,-4,4,1.06,,,,,3,0,3,0,0,2,2,5,,,,,,,,,,,,,,,,,,,,,,,1084.984663499985,None,1084.984663499985,None,1084.484230299946,None,j,0.7309867999283597,1084.984663499985,None,,,,,,,,,,,,,s,001,2021_Jul_12_1654,toilet,2021.1.3,99.88822517845452,
0,180,4,-4,1.06,,,,,3,0,3,0,0,3,3,26,,,,,,,,,,,,,,,,,,,,,,,1086.7258195999311,None,1086.7258195999311,None,1086.2254248999525,None,f,0.8619447000091895,1086.7258195999311,None,,,,,,,,,,,,,s,001,2021_Jul_12_1654,toilet,2021.1.3,99.88822517845452,
0,180,4,-4,0.97,,,,,3,0,3,0,0,4,4,23,,,,,,,,,,,,,,,,,,,,,,,1088.5970120999264,None,1088.5970120999264,None,1088.0966783999465,None,j,1.390592799987644,1088.5970120999264,None,,,,,,,,,,,,,s,001,2021_Jul_12_1654,toilet,2021.1.3,99.88822517845452,
180,180,-4,4,0.94,,,,,3,0,3,0,0,5,5,29,,,,,,,,,,,,,,,,,,,,,,,1090.9886385999853,None,1090.9886385999853,None,1090.488300499972,None,f,0.8549881000071764,1090.9886385999853,None,,,,,,,,,,,,,s,001,2021_Jul_12_1654,toilet,2021.1.3,99.88822517845452,
180,0,-4,4,1.15,,,,,3,0,3,0,0,6,6,48,,,,,,,,,,,,,,,,,,,,,,,1092.849986599991,None,1092.849986599991,None,1092.349564199918,None,j,0.5296615000115708,1092.849986599991,None,,,,,,,,,,,,,s,001,2021_Jul_12_1654,toilet,2021.1.3,99.88822517845452,
180,180,-4,4,1.03,,,,,3,0,3,0,0,7,7,32,,,,,,,,,,,,,,,,,,,,,,,1094.3909857999533,None,1094.3909857999533,None,1093.8906888000201,None,j,1.212620500009507,1094.3909857999533,None,,,,,,,,,,,,,s,001,2021_Jul_12_1654,toilet,2021.1.3,99.88822517845452,
180,180,4,-4,1.03,,,,,3,0,3,0,0,8,8,39,,,,,,,,,,,,,,,,,,,,,,,1096.6124513999093,None,1096.6124513999093,None,1096.1121123000048,None,f,1.295089800027199,1096.6124513999093,None,,,,,,,,,,,,,s,001,2021_Jul_12_1654,toilet,2021.1.3,99.88822517845452,
180,0,-4,4,1.03,,,,,3,0,3,0,0,9,9,46,,,,,,,,,,,,,,,,,,,,,,,1098.9140132999746,None,1098.9140132999746,None,1098.4136724999407,None,j,1.1216725000413135,1098.9140132999746,None,,,,,,,,,,,,,s,001,2021_Jul_12_1654,toilet,2021.1.3,99.88822517845452,
180,0,-4,4,0.97,,,,,3,0,3,0,0,10,10,44,,,,,,,,,,,,,,,,,,,,,,,1101.045596599928,None,1101.045596599928,None,1100.545209200005,None,f,1.1659781000344083,1101.045596599928,None,,,,,,,,,,,,,s,001,2021_Jul_12_1654,toilet,2021.1.3,99.88822517845452,
180,0,4,-4,1.15,,,,,3,0,3,0,0,11,11,55,,,,,,,,,,,,,,,,,,,,,,,1103.216933999909,None,1103.216933999909,None,1102.7166216999758,None,f,1.138627600041218,1103.216933999909,None,,,,,,,,,,,,,s,001,2021_Jul_12_1654,toilet,2021.1.3,99.88822517845452,
180,0,4,-4,0.94,,,,,3,0,3,0,0,12,12,50,,,,,,,,,,,,,,,,,,,,,,,1105.3583796999883,None,1105.3583796999883,None,1104.8580408999696,None,j,0.8533456000732258,1105.3583796999883,None,,,,,,,,,,,,,s,001,2021_Jul_12_1654,toilet,2021.1.3,99.88822517845452,
0,0,4,-4,1.0,,,,,3,0,3,0,0,13,13,10,,,,,,,,,,,,,,,,,,,,,,,1107.2396559999324,None,1107.2396559999324,None,1106.7393207999412,None,f,1.8679171999683604,1107.2396559999324,None,,,,,,,,,,,,,s,001,2021_Jul_12_1654,toilet,2021.1.3,99.88822517845452,
180,180,4,-4,1.15,,,,,3,0,3,0,0,14,14,41,,,,,,,,,,,,,,,,,,,,,,,1110.1116032999707,None,1110.1116032999707,None,1109.6112680999795,None,f,0.8519616998964921,1110.1116032999707,None,,,,,,,,,,,,,s,001,2021_Jul_12_1654,toilet,2021.1.3,99.88822517845452,
180,180,-4,4,1.15,,,,,3,0,3,0,0,15,15,34,,,,,,,,,,,,,,,,,,,,,,,1111.9628602999728,None,1111.9628602999728,None,1111.4625224999618,None,j,0.7767113998997957,1111.9628602999728,None,,,,,,,,,,,,,s,001,2021_Jul_12_1654,toilet,2021.1.3,99.88822517845452,
0,0,-4,4,1.0,,,,,3,0,3,0,0,16,16,3,,,,,,,,,,,,,,,,,,,,,,,1113.7440693000099,None,1113.7440693000099,None,1113.243724299944,None,f,1.1077804999658838,1113.7440693000099,None,,,,,,,,,,,,,s,001,2021_Jul_12_1654,toilet,2021.1.3,99.88822517845452,
0,0,4,-4,1.15,,,,,3,0,3,0,0,17,17,13,,,,,,,,,,,,,,,,,,,,,,,1115.8655757999513,None,1115.8655757999513,None,1115.3651650999673,None,f,0.8899759999476373,1115.8655757999513,None,,,,,,,,,,,,,s,001,2021_Jul_12_1654,toilet,2021.1.3,99.88822517845452,
180,180,4,-4,0.85,,,,,3,0,3,0,0,18,18,35,,,,,,,,,,,,,,,,,,,,,,,1117.756781199947,None,1117.756781199947,None,1117.2564421999268,None,j,0.9028676999732852,1117.756781199947,None,,,,,,,,,,,,,s,001,2021_Jul_12_1654,toilet,2021.1.3,99.88822517845452,
0,0,-4,4,1.15,,,,,3,0,3,0,0,19,19,6,,,,,,,,,,,,,,,,,,,,,,,1119.6680808999809,None,1119.6680808999809,None,1119.1777451999951,None,j,0.943675999995321,1119.6680808999809,None,,,,,,,,,,,,,s,001,2021_Jul_12_1654,toilet,2021.1.3,99.88822517845452,
180,180,-4,4,0.85,,,,,3,0,3,0,0,20,20,28,,,,,,,,,,,,,,,,,,,,,,,1121.629491199972,None,1121.629491199972,None,1121.129081799998,None,f,0.8863241999642923,1121.629491199972,None,,,,,,,,,,,,,s,001,2021_Jul_12_1654,toilet,2021.1.3,99.88822517845452,
180,0,4,-4,0.85,,,,,3,0,3,0,0,21,21,49,,,,,,,,,,,,,,,,,,,,,,,1123.5307870999677,None,1123.5307870999677,None,1123.0304521999788,None,j,0.4247730999486521,1123.5307870999677,None,,,,,,,,,,,,,s,001,2021_Jul_12_1654,toilet,2021.1.3,99.88822517845452,
0,0,-4,4,1.03,,,,,3,0,3,0,0,22,22,4,,,,,,,,,,,,,,,,,,,,,,,1124.9616746000247,None,1124.9616746000247,None,1124.46133369999,None,f,0.881958800018765,1124.9616746000247,None,,,,,,,,,,,,,s,001,2021_Jul_12_1654,toilet,2021.1.3,99.88822517845452,
180,180,-4,4,0.97,,,,,3,0,3,0,0,23,23,30,,,,,,,,,,,,,,,,,,,,,,,1126.8429484999506,None,1126.8429484999506,None,1126.3426101999357,None,f,0.98477300000377,1126.8429484999506,None,,,,,,,,,,,,,s,001,2021_Jul_12_1654,toilet,2021.1.3,99.88822517845452,
0,0,4,-4,0.85,,,,,3,0,3,0,0,24,24,7,,,,,,,,,,,,,,,,,,,,,,,1128.8543097999645,None,1128.8543097999645,None,1128.3539757999824,None,j,0.6533030999125913,1128.8543097999645,None,,,,,,,,,,,,,s,001,2021_Jul_12_1654,toilet,2021.1.3,99.88822517845452,
0,0,4,-4,0.97,,,,,3,0,3,0,0,25,25,9,,,,,,,,,,,,,,,,,,,,,,,1130.5255212999182,None,1130.5255212999182,None,1130.0251890999498,None,j,0.8060802000109106,1130.5255212999182,None,,,,,,,,,,,,,s,001,2021_Jul_12_1654,toilet,2021.1.3,99.88822517845452,
180,0,4,-4,1.06,,,,,3,0,3,0,0,26,26,54,,,,,,,,,,,,,,,,,,,,,,,1132.336664399947,None,1132.336664399947,None,1131.8363255999284,None,f,0.7869246000191197,1132.336664399947,None,,,,,,,,,,,,,s,001,2021_Jul_12_1654,toilet,2021.1.3,99.88822517845452,
0,180,-4,4,1.15,,,,,3,0,3,0,0,27,27,20,,,,,,,,,,,,,,,,,,,,,,,1134.127879699925,None,1134.127879699925,None,1133.6275415999116,None,j,0.7236846999730915,1134.127879699925,None,,,,,,,,,,,,,s,001,2021_Jul_12_1654,toilet,2021.1.3,99.88822517845452,
180,180,4,-4,0.94,,,,,3,0,3,0,0,28,28,36,,,,,,,,,,,,,,,,,,,,,,,1135.8590549000073,None,1135.8590549000073,None,1135.3587123999605,None,j,1.6005962999770418,1135.8590549000073,None,,,,,,,,,,,,,s,001,2021_Jul_12_1654,toilet,2021.1.3,99.88822517845452,
0,0,4,-4,1.06,,,,,3,0,3,0,0,29,29,12,,,,,,,,,,,,,,,,,,,,,,,1138.4609084000112,None,1138.4609084000112,None,1137.9605690999888,None,f,1.4947073000948876,1138.4609084000112,None,,,,,,,,,,,,,s,001,2021_Jul_12_1654,toilet,2021.1.3,99.88822517845452,
180,0,-4,4,0.85,,,,,3,0,3,0,0,30,30,42,,,,,,,,,,,,,,,,,,,,,,,1140.9625212999526,None,1140.9625212999526,None,1140.4621735999826,None,f,1.0410892999498174,1140.9625212999526,None,,,,,,,,,,,,,s,001,2021_Jul_12_1654,toilet,2021.1.3,99.88822517845452,
180,0,4,-4,1.03,,,,,3,0,3,0,0,31,31,53,,,,,,,,,,,,,,,,,,,,,,,1143.013905699947,None,1143.013905699947,None,1142.5135624000104,None,j,1.5016592999454588,1143.013905699947,None,,,,,,,,,,,,,s,001,2021_Jul_12_1654,toilet,2021.1.3,99.88822517845452,
0,180,4,-4,0.94,,,,,3,0,3,0,0,32,32,22,,,,,,,,,,,,,,,,,,,,,,,1145.5156781999394,None,1145.5156781999394,None,1145.0153582999483,None,j,0.9038730000611395,1145.5156781999394,None,,,,,,,,,,,,,s,001,2021_Jul_12_1654,toilet,2021.1.3,99.88822517845452,
180,180,-4,4,1.0,,,,,3,0,3,0,0,33,33,31,,,,,,,,,,,,,,,,,,,,,,,1147.4269002999645,None,1147.4269002999645,None,1146.9265610999428,None,f,2.000735499896109,1147.4269002999645,None,,,,,,,,,,,,,s,001,2021_Jul_12_1654,toilet,2021.1.3,99.88822517845452,
0,180,-4,4,1.0,,,,,3,0,3,0,0,34,34,17,,,,,,,,,,,,,,,,,,,,,,,1150.4389396000188,None,1150.4389396000188,None,1149.9386032000184,None,f,1.532610800000839,1150.4389396000188,None,,,,,,,,,,,,,s,001,2021_Jul_12_1654,toilet,2021.1.3,99.88822517845452,
180,0,-4,4,1.06,,,,,3,0,3,0,0,35,35,47,,,,,,,,,,,,,,,,,,,,,,,1152.980746199959,None,1152.980746199959,None,1152.4804122999776,None,j,0.70291079999879,1152.980746199959,None,,,,,,,,,,,,,s,001,2021_Jul_12_1654,toilet,2021.1.3,99.88822517845452,
180,180,4,-4,1.0,,,,,3,0,3,0,0,36,36,38,,,,,,,,,,,,,,,,,,,,,,,1154.6918240999803,None,1154.6918240999803,None,1154.191484699957,None,f,1.3918034000089392,1154.6918240999803,None,,,,,,,,,,,,,s,001,2021_Jul_12_1654,toilet,2021.1.3,99.88822517845452,
180,0,4,-4,1.0,,,,,3,0,3,0,0,37,37,52,,,,,,,,,,,,,,,,,,,,,,,1157.0834497999167,None,1157.0834497999167,None,1156.5831046999665,None,j,1.0642803000519052,1157.0834497999167,None,,,,,,,,,,,,,s,001,2021_Jul_12_1654,toilet,2021.1.3,99.88822517845452,
0,180,4,-4,1.0,,,,,3,0,3,0,0,38,38,24,,,,,,,,,,,,,,,,,,,,,,,1159.1648601000197,None,1159.1648601000197,None,1158.6646063999506,None,j,1.2387798000127077,1159.1648601000197,None,,,,,,,,,,,,,s,001,2021_Jul_12_1654,toilet,2021.1.3,99.88822517845452,
0,180,4,-4,1.15,,,,,3,0,3,0,0,39,39,27,,,,,,,,,,,,,,,,,,,,,,,1161.4163837999804,None,1161.4163837999804,None,1160.9160443999572,None,f,0.8271645000204444,1161.4163837999804,None,,,,,,,,,,,,,s,001,2021_Jul_12_1654,toilet,2021.1.3,99.88822517845452,
0,180,-4,4,1.03,,,,,3,0,3,0,0,40,40,18,,,,,,,,,,,,,,,,,,,,,,,1163.247626699973,None,1163.247626699973,None,1162.7472849999322,None,j,1.091970100067556,1163.247626699973,None,,,,,,,,,,,,,s,001,2021_Jul_12_1654,toilet,2021.1.3,99.88822517845452,
0,0,-4,4,0.97,,,,,3,0,3,0,0,41,41,2,,,,,,,,,,,,,,,,,,,,,,,1165.3390443999087,None,1165.3390443999087,None,1164.8387077000225,None,j,1.5285861999727786,1165.3390443999087,None,,,,,,,,,,,,,s,001,2021_Jul_12_1654,toilet,2021.1.3,99.88822517845452,
180,0,-4,4,0.94,,,,,3,0,3,0,0,42,42,43,,,,,,,,,,,,,,,,,,,,,,,1167.8808465999318,None,1167.8808465999318,None,1167.3804266999941,None,f,1.0667076000245288,1167.8808465999318,None,,,,,,,,,,,,,s,001,2021_Jul_12_1654,toilet,2021.1.3,99.88822517845452,
0,180,4,-4,0.85,,,,,3,0,3,0,0,43,43,21,,,,,,,,,,,,,,,,,,,,,,,1169.9521709999535,None,1169.9521709999535,None,1169.4518294999143,None,j,1.1714596999809146,1169.9521709999535,None,,,,,,,,,,,,,s,001,2021_Jul_12_1654,toilet,2021.1.3,99.88822517845452,
0,0,4,-4,0.94,,,,,3,0,3,0,0,44,44,8,,,,,,,,,,,,,,,,,,,,,,,1172.133650099975,None,1172.133650099975,None,1171.6333144999808,None,j,1.0860489000333473,1172.133650099975,None,,,,,,,,,,,,,s,001,2021_Jul_12_1654,toilet,2021.1.3,99.88822517845452,
0,180,-4,4,1.06,,,,,3,0,3,0,0,45,45,19,,,,,,,,,,,,,,,,,,,,,,,1174.2350764999865,None,1174.2350764999865,None,1173.7348169999896,None,j,1.6084914000239223,1174.2350764999865,None,,,,,,,,,,,,,s,001,2021_Jul_12_1654,toilet,2021.1.3,99.88822517845452,
0,180,-4,4,0.85,,,,,3,0,3,0,0,46,46,14,,,,,,,,,,,,,,,,,,,,,,,1176.8468414000235,None,1176.8468414000235,None,1176.346503400011,None,f,0.708715199958533,1176.8468414000235,None,,,,,,,,,,,,,s,001,2021_Jul_12_1654,toilet,2021.1.3,99.88822517845452,
180,180,-4,4,1.06,,,,,3,0,3,0,0,47,47,33,,,,,,,,,,,,,,,,,,,,,,,1178.55802519992,None,1178.55802519992,None,1178.0576630999567,None,j,0.6295958999544382,1178.55802519992,None,,,,,,,,,,,,,s,001,2021_Jul_12_1654,toilet,2021.1.3,99.88822517845452,
0,0,-4,4,0.94,,,,,3,0,3,0,0,48,48,1,,,,,,,,,,,,,,,,,,,,,,,1180.1991171999834,None,1180.1991171999834,None,1179.6987814999884,None,f,1.2126052000094205,1180.1991171999834,None,,,,,,,,,,,,,s,001,2021_Jul_12_1654,toilet,2021.1.3,99.88822517845452,
0,180,-4,4,0.97,,,,,3,0,3,0,0,49,49,16,,,,,,,,,,,,,,,,,,,,,,,1182.4206365999999,None,1182.4206365999999,None,1181.9203725999687,None,f,1.18291470000986,1182.4206365999999,None,,,,,,,,,,,,,s,001,2021_Jul_12_1654,toilet,2021.1.3,99.88822517845452,
