ori_st,ori_pr,xpos_st,xpos_pr,size,trials_3.thisRepN,trials_3.thisTrialN,trials_3.thisN,trials_3.thisIndex,trials_2.thisRepN,trials_2.thisTrialN,trials_2.thisN,trials_2.thisIndex,trials.thisRepN,trials.thisTrialN,trials.thisN,trials.thisIndex,wel_pra.started,wel_pra.stopped,resp_wel.keys,resp_wel.rt,resp_wel.started,resp_wel.stopped,standard_pra.started,standard_pra.stopped,prove_pra.started,prove_pra.stopped,fixation.started,fixation.stopped,resp_pra.keys,resp_pra.rt,resp_pra.started,resp_pra.stopped,instr.started,instr.stopped,key_resp_2.keys,key_resp_2.rt,key_resp_2.started,key_resp_2.stopped,standard.started,standard.stopped,probe.started,probe.stopped,text.started,text.stopped,resp.keys,resp.rt,resp.started,resp.stopped,text_2.started,text_2.stopped,key_resp.keys,key_resp.rt,key_resp.started,key_resp.stopped,text_3.started,text_3.stopped,key_resp_3.keys,key_resp_3.rt,key_resp_3.started,key_resp_3.stopped,participant,session,date,expName,psychopyVersion,frameRate,
,,,,,,,,,,,,,,,,,43.764877300010994,None,space,152.30742130003637,43.764877300010994,None,,,,,,,,,,,,,,,,,,,,,,,,,,,,,,,,,,,,,,,q,001,2021_Jul_10_1447,toilet,2021.1.3,99.91706880626961,
0,180,4,-4,0.85,0,0,0,5,,,,,,,,,,,,,,,197.23393590003252,None,197.23393590003252,None,196.66336080001201,None,j,8.07031849998748,197.23393590003252,None,,,,,,,,,,,,,,,,,,,,,,,,,,,,,q,001,2021_Jul_10_1447,toilet,2021.1.3,99.91706880626961,
0,180,-4,4,1.15,0,1,1,6,,,,,,,,,,,,,,,206.3399317000294,None,206.3399317000294,None,205.8395898999879,None,j,1.316435899992939,206.3399317000294,None,,,,,,,,,,,,,,,,,,,,,,,,,,,,,q,001,2021_Jul_10_1447,toilet,2021.1.3,99.91706880626961,
0,0,4,-4,1.15,0,2,2,3,,,,,,,,,,,,,,,208.67154429998482,None,208.67154429998482,None,208.1711699999869,None,f,1.2406234999652952,208.67154429998482,None,,,,,,,,,,,,,,,,,,,,,,,,,,,,,q,001,2021_Jul_10_1447,toilet,2021.1.3,99.91706880626961,
0,180,-4,4,0.85,0,3,3,4,,,,,,,,,,,,,,,210.91303230001358,None,210.91303230001358,None,210.4126949000056,None,f,0.9991016999701969,210.91303230001358,None,,,,,,,,,,,,,,,,,,,,,,,,,,,,,q,001,2021_Jul_10_1447,toilet,2021.1.3,99.91706880626961,
180,180,-4,4,0.85,0,4,4,8,,,,,,,,,,,,,,,212.91439260001061,None,212.91439260001061,None,212.41404990002047,None,f,0.8698103000060655,212.91439260001061,None,,,,,,,,,,,,,,,,,,,,,,,,,,,,,q,001,2021_Jul_10_1447,toilet,2021.1.3,99.91706880626961,
0,0,-4,4,0.85,0,5,5,0,,,,,,,,,,,,,,,214.7857415000326,None,214.7857415000326,None,214.28541050001513,None,f,0.8065023000235669,214.7857415000326,None,,,,,,,,,,,,,,,,,,,,,,,,,,,,,q,001,2021_Jul_10_1447,toilet,2021.1.3,99.91706880626961,
180,180,-4,4,0.85,0,6,6,9,,,,,,,,,,,,,,,216.60690120002255,None,216.60690120002255,None,216.10664220002946,None,f,0.7772141000023112,216.60690120002255,None,,,,,,,,,,,,,,,,,,,,,,,,,,,,,q,001,2021_Jul_10_1447,toilet,2021.1.3,99.91706880626961,
180,0,-4,4,0.85,0,7,7,13,,,,,,,,,,,,,,,218.3881072999793,None,218.3881072999793,None,217.8877649999922,None,f,2.1800967999733984,218.3881072999793,None,,,,,,,,,,,,,,,,,,,,,,,,,,,,,q,001,2021_Jul_10_1447,toilet,2021.1.3,99.91706880626961,
180,180,-4,4,1.15,0,8,8,10,,,,,,,,,,,,,,,221.5802788999863,None,221.5802788999863,None,221.07993340003304,None,j,0.9879586999886669,221.5802788999863,None,,,,,,,,,,,,,,,,,,,,,,,,,,,,,q,001,2021_Jul_10_1447,toilet,2021.1.3,99.91706880626961,
180,180,-4,4,1.15,0,9,9,11,,,,,,,,,,,,,,,223.5816627999884,None,223.5816627999884,None,223.0812891999958,None,j,1.0345376000041142,223.5816627999884,None,,,,,,,,,,,,,,,,,,,,,,,,,,,,,q,001,2021_Jul_10_1447,toilet,2021.1.3,99.91706880626961,
0,180,4,-4,1.15,0,10,10,7,,,,,,,,,,,,,,,225.62300949997734,None,225.62300949997734,None,225.12266619998263,None,f,0.8173896999796852,225.62300949997734,None,,,,,,,,,,,,,,,,,,,,,,,,,,,,,q,001,2021_Jul_10_1447,toilet,2021.1.3,99.91706880626961,
0,0,4,-4,0.85,0,11,11,1,,,,,,,,,,,,,,,227.4542510000174,None,227.4542510000174,None,226.9539114999934,None,j,0.938006000011228,227.4542510000174,None,,,,,,,,,,,,,,,,,,,,,,,,,,,,,q,001,2021_Jul_10_1447,toilet,2021.1.3,99.91706880626961,
180,0,-4,4,0.85,0,12,12,12,,,,,,,,,,,,,,,229.40566879999824,None,229.40566879999824,None,228.90523420000682,None,f,0.8905857999925502,229.40566879999824,None,,,,,,,,,,,,,,,,,,,,,,,,,,,,,q,001,2021_Jul_10_1447,toilet,2021.1.3,99.91706880626961,
0,0,-4,4,1.15,0,13,13,2,,,,,,,,,,,,,,,231.30686660000356,None,231.30686660000356,None,230.80660419998458,None,j,0.7493807999999262,231.30686660000356,None,,,,,,,,,,,,,,,,,,,,,,,,,,,,,q,001,2021_Jul_10_1447,toilet,2021.1.3,99.91706880626961,
180,0,-4,4,1.15,0,14,14,15,,,,,,,,,,,,,,,233.05805230000988,None,233.05805230000988,None,232.55771189997904,None,j,0.8062232999945991,233.05805230000988,None,,,,,,,,,,,,,,,,,,,,,,,,,,,,,q,001,2021_Jul_10_1447,toilet,2021.1.3,99.91706880626961,
180,0,-4,4,1.15,0,15,15,14,,,,,,,,,,,,,,,234.87932419998106,None,234.87932419998106,None,234.37895089999074,None,j,0.7767971000284888,234.87932419998106,None,,,,,,,,,,,,,,,,,,,,,,,,,,,,,q,001,2021_Jul_10_1447,toilet,2021.1.3,99.91706880626961,
0,0,4,-4,0.85,,,,,0,0,0,0,0,0,0,7,,,,,,,,,,,,,,,,,235.6698373000254,None,space,103.7784604000044,235.6698373000254,None,340.4710224000155,None,340.4710224000155,None,339.9705913999933,None,j,0.8811554999556392,340.4710224000155,None,,,,,,,,,,,,,q,001,2021_Jul_10_1447,toilet,2021.1.3,99.91706880626961,
0,0,4,-4,1.0,,,,,0,0,0,0,0,1,1,10,,,,,,,,,,,,,,,,,,,,,,,342.36221880000085,None,342.36221880000085,None,341.86187650001375,None,f,0.8138130999868736,342.36221880000085,None,,,,,,,,,,,,,q,001,2021_Jul_10_1447,toilet,2021.1.3,99.91706880626961,
180,180,4,-4,1.15,,,,,0,0,0,0,0,2,2,41,,,,,,,,,,,,,,,,,,,,,,,344.18345339997904,None,344.18345339997904,None,343.68310570000904,None,f,0.672694299952127,344.18345339997904,None,,,,,,,,,,,,,q,001,2021_Jul_10_1447,toilet,2021.1.3,99.91706880626961,
0,0,-4,4,1.0,,,,,0,0,0,0,0,3,3,3,,,,,,,,,,,,,,,,,,,,,,,345.8745942999958,None,345.8745942999958,None,345.3742560999817,None,f,0.7096134999883361,345.8745942999958,None,,,,,,,,,,,,,q,001,2021_Jul_10_1447,toilet,2021.1.3,99.91706880626961,
180,0,-4,4,1.06,,,,,0,0,0,0,0,4,4,47,,,,,,,,,,,,,,,,,,,,,,,347.59576090000337,None,347.59576090000337,None,347.09551830001874,None,j,1.2443607000168413,347.59576090000337,None,,,,,,,,,,,,,q,001,2021_Jul_10_1447,toilet,2021.1.3,99.91706880626961,
180,0,4,-4,1.03,,,,,0,0,0,0,0,5,5,53,,,,,,,,,,,,,,,,,,,,,,,349.8472906000097,None,349.8472906000097,None,349.34695059998194,None,f,0.7207685000030324,349.8472906000097,None,,,,,,,,,,,,,q,001,2021_Jul_10_1447,toilet,2021.1.3,99.91706880626961,
180,180,-4,4,1.0,,,,,0,0,0,0,0,6,6,31,,,,,,,,,,,,,,,,,,,,,,,351.56846270000096,None,351.56846270000096,None,351.068123199977,None,f,0.9996918000397272,351.56846270000096,None,,,,,,,,,,,,,q,001,2021_Jul_10_1447,toilet,2021.1.3,99.91706880626961,
180,0,-4,4,1.03,,,,,0,0,0,0,0,7,7,46,,,,,,,,,,,,,,,,,,,,,,,353.57982320000883,None,353.57982320000883,None,353.0794799000141,None,j,1.1483968999818899,353.57982320000883,None,,,,,,,,,,,,,q,001,2021_Jul_10_1447,toilet,2021.1.3,99.91706880626961,
180,180,4,-4,1.03,,,,,0,0,0,0,0,8,8,39,,,,,,,,,,,,,,,,,,,,,,,355.7413725000224,None,355.7413725000224,None,355.24103350000223,None,f,0.682753800007049,355.7413725000224,None,,,,,,,,,,,,,q,001,2021_Jul_10_1447,toilet,2021.1.3,99.91706880626961,
0,0,4,-4,1.03,,,,,0,0,0,0,0,9,9,11,,,,,,,,,,,,,,,,,,,,,,,357.43243530002655,None,357.43243530002655,None,356.9320983000216,None,f,0.7197723999852315,357.43243530002655,None,,,,,,,,,,,,,q,001,2021_Jul_10_1447,toilet,2021.1.3,99.91706880626961,
180,180,-4,4,1.03,,,,,0,0,0,0,0,10,10,32,,,,,,,,,,,,,,,,,,,,,,,359.1536049999995,None,359.1536049999995,None,358.65326420002384,None,j,1.606633100018371,359.1536049999995,None,,,,,,,,,,,,,q,001,2021_Jul_10_1447,toilet,2021.1.3,99.91706880626961,
180,0,4,-4,0.97,,,,,0,0,0,0,0,11,11,51,,,,,,,,,,,,,,,,,,,,,,,361.7753838999779,None,361.7753838999779,None,361.2751355000073,None,f,1.7367039999808185,361.7753838999779,None,,,,,,,,,,,,,q,001,2021_Jul_10_1447,toilet,2021.1.3,99.91706880626961,
180,180,-4,4,1.15,,,,,0,0,0,0,0,12,12,34,,,,,,,,,,,,,,,,,,,,,,,364.51724369998556,None,364.51724369998556,None,364.01690480002435,None,j,0.6269453000277281,364.51724369998556,None,,,,,,,,,,,,,q,001,2021_Jul_10_1447,toilet,2021.1.3,99.91706880626961,
180,0,4,-4,0.94,,,,,0,0,0,0,0,13,13,50,,,,,,,,,,,,,,,,,,,,,,,366.14834760001395,None,366.14834760001395,None,365.6480129000265,None,f,0.8679180999752134,366.14834760001395,None,,,,,,,,,,,,,q,001,2021_Jul_10_1447,toilet,2021.1.3,99.91706880626961,
0,180,-4,4,1.15,,,,,0,0,0,0,0,14,14,20,,,,,,,,,,,,,,,,,,,,,,,368.02962899999693,None,368.02962899999693,None,367.52928720001364,None,j,0.7624427000409923,368.02962899999693,None,,,,,,,,,,,,,q,001,2021_Jul_10_1447,toilet,2021.1.3,99.91706880626961,
180,0,4,-4,1.15,,,,,0,0,0,0,0,15,15,55,,,,,,,,,,,,,,,,,,,,,,,369.8009164999821,None,369.8009164999821,None,369.3005768000148,None,f,0.8471604000078514,369.8009164999821,None,,,,,,,,,,,,,q,001,2021_Jul_10_1447,toilet,2021.1.3,99.91706880626961,
0,180,4,-4,0.94,,,,,0,0,0,0,0,16,16,22,,,,,,,,,,,,,,,,,,,,,,,371.66209370002616,None,371.66209370002616,None,371.1617477000109,None,j,0.8580713999690488,371.66209370002616,None,,,,,,,,,,,,,q,001,2021_Jul_10_1447,toilet,2021.1.3,99.91706880626961,
180,0,4,-4,1.0,,,,,0,0,0,0,0,17,17,52,,,,,,,,,,,,,,,,,,,,,,,373.52336360001937,None,373.52336360001937,None,373.0230156999896,None,f,1.0928335000062361,373.52336360001937,None,,,,,,,,,,,,,q,001,2021_Jul_10_1447,toilet,2021.1.3,99.91706880626961,
0,180,4,-4,1.03,,,,,0,0,0,0,0,18,18,25,,,,,,,,,,,,,,,,,,,,,,,375.6347837999929,None,375.6347837999929,None,375.134455899999,None,f,1.7654179999954067,375.6347837999929,None,,,,,,,,,,,,,q,001,2021_Jul_10_1447,toilet,2021.1.3,99.91706880626961,
180,180,4,-4,1.06,,,,,0,0,0,0,0,19,19,40,,,,,,,,,,,,,,,,,,,,,,,378.4066698999959,None,378.4066698999959,None,377.9064265000052,None,f,0.8015246000140905,378.4066698999959,None,,,,,,,,,,,,,q,001,2021_Jul_10_1447,toilet,2021.1.3,99.91706880626961,
180,180,-4,4,0.94,,,,,0,0,0,0,0,20,20,29,,,,,,,,,,,,,,,,,,,,,,,380.20789219997823,None,380.20789219997823,None,379.70754809997743,None,f,0.9844276999938302,380.20789219997823,None,,,,,,,,,,,,,q,001,2021_Jul_10_1447,toilet,2021.1.3,99.91706880626961,
180,0,4,-4,1.06,,,,,0,0,0,0,0,21,21,54,,,,,,,,,,,,,,,,,,,,,,,382.21925700001884,None,382.21925700001884,None,381.71891470003175,None,f,1.2450426999712363,382.21925700001884,None,,,,,,,,,,,,,q,001,2021_Jul_10_1447,toilet,2021.1.3,99.91706880626961,
180,0,-4,4,0.85,,,,,0,0,0,0,0,22,22,42,,,,,,,,,,,,,,,,,,,,,,,384.47079639998265,None,384.47079639998265,None,383.9805459000054,None,f,0.5454884000355378,384.47079639998265,None,,,,,,,,,,,,,q,001,2021_Jul_10_1447,toilet,2021.1.3,99.91706880626961,
0,0,4,-4,0.97,,,,,0,0,0,0,0,23,23,9,,,,,,,,,,,,,,,,,,,,,,,386.0318347000284,None,386.0318347000284,None,385.53153580002254,None,j,0.7441799999796785,386.0318347000284,None,,,,,,,,,,,,,q,001,2021_Jul_10_1447,toilet,2021.1.3,99.91706880626961,
0,180,-4,4,0.94,,,,,0,0,0,0,0,24,24,15,,,,,,,,,,,,,,,,,,,,,,,387.78302239999175,None,387.78302239999175,None,387.28268890001345,None,f,0.6091902000480331,387.78302239999175,None,,,,,,,,,,,,,q,001,2021_Jul_10_1447,toilet,2021.1.3,99.91706880626961,
0,180,4,-4,1.15,,,,,0,0,0,0,0,25,25,27,,,,,,,,,,,,,,,,,,,,,,,389.4041306999861,None,389.4041306999861,None,388.9037810000009,None,f,0.5880386000499129,389.4041306999861,None,,,,,,,,,,,,,q,001,2021_Jul_10_1447,toilet,2021.1.3,99.91706880626961,
180,180,4,-4,0.94,,,,,0,0,0,0,0,26,26,36,,,,,,,,,,,,,,,,,,,,,,,391.0052834000089,None,391.0052834000089,None,390.50487479998264,None,j,0.5549213000340387,391.0052834000089,None,,,,,,,,,,,,,q,001,2021_Jul_10_1447,toilet,2021.1.3,99.91706880626961,
180,0,-4,4,1.0,,,,,0,0,0,0,0,27,27,45,,,,,,,,,,,,,,,,,,,,,,,392.57631410000613,None,392.57631410000613,None,392.07597310002893,None,j,2.16772760002641,392.57631410000613,None,,,,,,,,,,,,,q,001,2021_Jul_10_1447,toilet,2021.1.3,99.91706880626961,
0,0,-4,4,1.03,,,,,0,0,0,0,0,28,28,4,,,,,,,,,,,,,,,,,,,,,,,395.74843099998543,None,395.74843099998543,None,395.2480930000311,None,f,3.5237916000187397,395.74843099998543,None,,,,,,,,,,,,,q,001,2021_Jul_10_1447,toilet,2021.1.3,99.91706880626961,
0,180,-4,4,1.03,,,,,0,0,0,0,0,29,29,18,,,,,,,,,,,,,,,,,,,,,,,400.2915591999772,None,400.2915591999772,None,399.7911902000196,None,j,0.7244937000214122,400.2915591999772,None,,,,,,,,,,,,,q,001,2021_Jul_10_1447,toilet,2021.1.3,99.91706880626961,
0,180,4,-4,0.85,,,,,0,0,0,0,0,30,30,21,,,,,,,,,,,,,,,,,,,,,,,402.02269299997715,None,402.02269299997715,None,401.52234690001933,None,j,0.6577223999775015,402.02269299997715,None,,,,,,,,,,,,,q,001,2021_Jul_10_1447,toilet,2021.1.3,99.91706880626961,
180,180,4,-4,1.0,,,,,0,0,0,0,0,31,31,38,,,,,,,,,,,,,,,,,,,,,,,403.69382129999576,None,403.69382129999576,None,403.1934845999931,None,f,2.2823068000143394,403.69382129999576,None,,,,,,,,,,,,,q,001,2021_Jul_10_1447,toilet,2021.1.3,99.91706880626961,
0,0,4,-4,1.15,,,,,0,0,0,0,0,32,32,13,,,,,,,,,,,,,,,,,,,,,,,406.98613340000156,None,406.98613340000156,None,406.48580229998333,None,f,1.5499616999877617,406.98613340000156,None,,,,,,,,,,,,,q,001,2021_Jul_10_1447,toilet,2021.1.3,99.91706880626961,
180,180,-4,4,0.85,,,,,0,0,0,0,0,33,33,28,,,,,,,,,,,,,,,,,,,,,,,409.53778660000535,None,409.53778660000535,None,409.03745180001715,None,f,1.014576199988369,409.53778660000535,None,,,,,,,,,,,,,q,001,2021_Jul_10_1447,toilet,2021.1.3,99.91706880626961,
0,0,4,-4,0.94,,,,,0,0,0,0,0,34,34,8,,,,,,,,,,,,,,,,,,,,,,,411.56916620000266,None,411.56916620000266,None,411.0688281999901,None,j,0.9669248000136577,411.56916620000266,None,,,,,,,,,,,,,q,001,2021_Jul_10_1447,toilet,2021.1.3,99.91706880626961,
0,0,-4,4,1.06,,,,,0,0,0,0,0,35,35,5,,,,,,,,,,,,,,,,,,,,,,,413.54058760002954,None,413.54058760002954,None,413.04016380000394,None,j,1.8274404000258073,413.54058760002954,None,,,,,,,,,,,,,q,001,2021_Jul_10_1447,toilet,2021.1.3,99.91706880626961,
180,180,4,-4,0.97,,,,,0,0,0,0,0,36,36,37,,,,,,,,,,,,,,,,,,,,,,,416.3724246000056,None,416.3724246000056,None,415.87208479997935,None,j,0.8516132000368088,416.3724246000056,None,,,,,,,,,,,,,q,001,2021_Jul_10_1447,toilet,2021.1.3,99.91706880626961,
180,0,-4,4,0.94,,,,,0,0,0,0,0,37,37,43,,,,,,,,,,,,,,,,,,,,,,,418.2236818000092,None,418.2236818000092,None,417.72334119997686,None,f,0.728601599985268,418.2236818000092,None,,,,,,,,,,,,,q,001,2021_Jul_10_1447,toilet,2021.1.3,99.91706880626961,
0,0,4,-4,1.06,,,,,0,0,0,0,0,38,38,12,,,,,,,,,,,,,,,,,,,,,,,419.96486120001646,None,419.96486120001646,None,419.4645190000301,None,f,1.0031917999731377,419.96486120001646,None,,,,,,,,,,,,,q,001,2021_Jul_10_1447,toilet,2021.1.3,99.91706880626961,
0,0,-4,4,1.15,,,,,0,0,0,0,0,39,39,6,,,,,,,,,,,,,,,,,,,,,,,421.98623869998846,None,421.98623869998846,None,421.48597819998395,None,j,0.7739801999996416,421.98623869998846,None,,,,,,,,,,,,,q,001,2021_Jul_10_1447,toilet,2021.1.3,99.91706880626961,
0,0,-4,4,0.97,,,,,0,0,0,0,0,40,40,2,,,,,,,,,,,,,,,,,,,,,,,423.7674400000251,None,423.7674400000251,None,423.2671047000331,None,f,0.70471700001508,423.7674400000251,None,,,,,,,,,,,,,q,001,2021_Jul_10_1447,toilet,2021.1.3,99.91706880626961,
0,180,-4,4,0.97,,,,,0,0,0,0,0,41,41,16,,,,,,,,,,,,,,,,,,,,,,,425.4886094999965,None,425.4886094999965,None,424.9882750000106,None,j,1.415437399991788,425.4886094999965,None,,,,,,,,,,,,,q,001,2021_Jul_10_1447,toilet,2021.1.3,99.91706880626961,
0,180,-4,4,1.06,,,,,0,0,0,0,0,42,42,19,,,,,,,,,,,,,,,,,,,,,,,427.9102909999783,None,427.9102909999783,None,427.4099071000237,None,j,0.7697561999666505,427.9102909999783,None,,,,,,,,,,,,,q,001,2021_Jul_10_1447,toilet,2021.1.3,99.91706880626961,
0,0,-4,4,0.85,,,,,0,0,0,0,0,43,43,0,,,,,,,,,,,,,,,,,,,,,,,429.681464400026,None,429.681464400026,None,429.18119570001727,None,f,0.5665746000013314,429.681464400026,None,,,,,,,,,,,,,q,001,2021_Jul_10_1447,toilet,2021.1.3,99.91706880626961,
180,0,4,-4,0.85,,,,,0,0,0,0,0,44,44,49,,,,,,,,,,,,,,,,,,,,,,,431.25252089998685,None,431.25252089998685,None,430.752201700001,None,j,0.5155771000427194,431.25252089998685,None,,,,,,,,,,,,,q,001,2021_Jul_10_1447,toilet,2021.1.3,99.91706880626961,
180,180,4,-4,0.85,,,,,0,0,0,0,0,45,45,35,,,,,,,,,,,,,,,,,,,,,,,432.77354909997666,None,432.77354909997666,None,432.27321250003297,None,j,0.57860539999092,432.77354909997666,None,,,,,,,,,,,,,q,001,2021_Jul_10_1447,toilet,2021.1.3,99.91706880626961,
180,0,-4,4,0.97,,,,,0,0,0,0,0,46,46,44,,,,,,,,,,,,,,,,,,,,,,,434.3646314999787,None,434.3646314999787,None,433.8642908000038,None,f,0.61949569999706,434.3646314999787,None,,,,,,,,,,,,,q,001,2021_Jul_10_1447,toilet,2021.1.3,99.91706880626961,
0,180,-4,4,1.0,,,,,0,0,0,0,0,47,47,17,,,,,,,,,,,,,,,,,,,,,,,435.9958135000197,None,435.9958135000197,None,435.49539769999683,None,f,2.4121864000335336,435.9958135000197,None,,,,,,,,,,,,,q,001,2021_Jul_10_1447,toilet,2021.1.3,99.91706880626961,
0,180,4,-4,1.0,,,,,0,0,0,0,0,48,48,24,,,,,,,,,,,,,,,,,,,,,,,439.40805420000106,None,439.40805420000106,None,438.9077142000315,None,f,0.5361479999846779,439.40805420000106,None,,,,,,,,,,,,,q,001,2021_Jul_10_1447,toilet,2021.1.3,99.91706880626961,
180,0,-4,4,1.15,,,,,0,0,0,0,0,49,49,48,,,,,,,,,,,,,,,,,,,,,,,440.94909930002177,None,440.94909930002177,None,440.44875909999246,None,j,0.739013199985493,440.94909930002177,None,,,,,,,,,,,,,q,001,2021_Jul_10_1447,toilet,2021.1.3,99.91706880626961,
0,180,4,-4,0.97,,,,,0,0,0,0,0,50,50,23,,,,,,,,,,,,,,,,,,,,,,,442.7002855000319,None,442.7002855000319,None,442.2000376000069,None,j,0.8278162999777123,442.7002855000319,None,,,,,,,,,,,,,q,001,2021_Jul_10_1447,toilet,2021.1.3,99.91706880626961,
0,0,-4,4,0.94,,,,,0,0,0,0,0,51,51,1,,,,,,,,,,,,,,,,,,,,,,,444.5415369999828,None,444.5415369999828,None,444.041276599979,None,f,0.6346154999919236,444.5415369999828,None,,,,,,,,,,,,,q,001,2021_Jul_10_1447,toilet,2021.1.3,99.91706880626961,
0,180,4,-4,1.06,,,,,0,0,0,0,0,52,52,26,,,,,,,,,,,,,,,,,,,,,,,446.18268090003403,None,446.18268090003403,None,445.68231370003195,None,f,0.7534489999525249,446.18268090003403,None,,,,,,,,,,,,,q,001,2021_Jul_10_1447,toilet,2021.1.3,99.91706880626961,
180,180,-4,4,0.97,,,,,0,0,0,0,0,53,53,30,,,,,,,,,,,,,,,,,,,,,,,447.9438442999963,None,447.9438442999963,None,447.4435011000023,None,f,2.8802545000216924,447.9438442999963,None,,,,,,,,,,,,,q,001,2021_Jul_10_1447,toilet,2021.1.3,99.91706880626961,
180,180,-4,4,1.06,,,,,0,0,0,0,0,54,54,33,,,,,,,,,,,,,,,,,,,,,,,451.83648920000996,None,451.83648920000996,None,451.3362331999815,None,j,0.7155448999837972,451.83648920000996,None,,,,,,,,,,,,,q,001,2021_Jul_10_1447,toilet,2021.1.3,99.91706880626961,
0,180,-4,4,0.85,,,,,0,0,0,0,0,55,55,14,,,,,,,,,,,,,,,,,,,,,,,453.55765179998707,None,453.55765179998707,None,453.0573378999834,None,f,0.8024635000037961,453.55765179998707,None,,,,,,,,,,,,,q,001,2021_Jul_10_1447,toilet,2021.1.3,99.91706880626961,
180,180,-4,4,1.03,,,,,0,0,0,0,1,0,56,32,,,,,,,,,,,,,,,,,,,,,,,455.3688831999898,None,455.3688831999898,None,454.86854029999813,None,f,2.239148300024681,455.3688831999898,None,,,,,,,,,,,,,q,001,2021_Jul_10_1447,toilet,2021.1.3,99.91706880626961,
180,180,4,-4,1.15,,,,,0,0,0,0,1,1,57,41,,,,,,,,,,,,,,,,,,,,,,,458.611180900014,None,458.611180900014,None,458.1107805999927,None,f,0.7408073999686167,458.611180900014,None,,,,,,,,,,,,,q,001,2021_Jul_10_1447,toilet,2021.1.3,99.91706880626961,
0,0,-4,4,0.85,,,,,0,0,0,0,1,2,58,0,,,,,,,,,,,,,,,,,,,,,,,460.35225990001345,None,460.35225990001345,None,459.851925200026,None,f,0.7278906999854371,460.35225990001345,None,,,,,,,,,,,,,q,001,2021_Jul_10_1447,toilet,2021.1.3,99.91706880626961,
0,0,-4,4,1.06,,,,,0,0,0,0,1,3,59,5,,,,,,,,,,,,,,,,,,,,,,,462.0834445999935,None,462.0834445999935,None,461.583098699979,None,j,0.9806036000372842,462.0834445999935,None,,,,,,,,,,,,,q,001,2021_Jul_10_1447,toilet,2021.1.3,99.91706880626961,
180,180,-4,4,0.97,,,,,0,0,0,0,1,4,60,30,,,,,,,,,,,,,,,,,,,,,,,464.06478700001026,None,464.06478700001026,None,463.5644449000247,None,f,0.759326700004749,464.06478700001026,None,,,,,,,,,,,,,q,001,2021_Jul_10_1447,toilet,2021.1.3,99.91706880626961,
0,180,4,-4,0.85,,,,,0,0,0,0,1,5,61,21,,,,,,,,,,,,,,,,,,,,,,,465.8360650999821,None,465.8360650999821,None,465.3356418000185,None,j,0.5720508000231348,465.8360650999821,None,,,,,,,,,,,,,q,001,2021_Jul_10_1447,toilet,2021.1.3,99.91706880626961,
180,180,4,-4,1.03,,,,,0,0,0,0,1,6,62,39,,,,,,,,,,,,,,,,,,,,,,,467.41705590003403,None,467.41705590003403,None,466.91671790002147,None,f,0.7189657000126317,467.41705590003403,None,,,,,,,,,,,,,q,001,2021_Jul_10_1447,toilet,2021.1.3,99.91706880626961,
0,0,-4,4,1.15,,,,,0,0,0,0,1,7,63,6,,,,,,,,,,,,,,,,,,,,,,,469.1382266000146,None,469.1382266000146,None,468.63789220002946,None,j,0.581908599997405,469.1382266000146,None,,,,,,,,,,,,,q,001,2021_Jul_10_1447,toilet,2021.1.3,99.91706880626961,
0,180,4,-4,1.03,,,,,0,0,0,0,1,8,64,25,,,,,,,,,,,,,,,,,,,,,,,470.7393122999929,None,470.7393122999929,None,470.2389726000256,None,f,0.8847120000282302,470.7393122999929,None,,,,,,,,,,,,,q,001,2021_Jul_10_1447,toilet,2021.1.3,99.91706880626961,
0,0,-4,4,0.94,,,,,0,0,0,0,1,9,65,1,,,,,,,,,,,,,,,,,,,,,,,472.6306854999857,None,472.6306854999857,None,472.1302522000042,None,f,0.6895232999813743,472.6306854999857,None,,,,,,,,,,,,,q,001,2021_Jul_10_1447,toilet,2021.1.3,99.91706880626961,
180,0,4,-4,1.15,,,,,0,0,0,0,1,10,66,55,,,,,,,,,,,,,,,,,,,,,,,474.33174130000407,None,474.33174130000407,None,473.831445000018,None,f,0.6362787000252865,474.33174130000407,None,,,,,,,,,,,,,q,001,2021_Jul_10_1447,toilet,2021.1.3,99.91706880626961,
0,0,-4,4,0.97,,,,,0,0,0,0,1,11,67,2,,,,,,,,,,,,,,,,,,,,,,,475.97285640001064,None,475.97285640001064,None,475.4725180999958,None,f,2.899370300001465,475.97285640001064,None,,,,,,,,,,,,,q,001,2021_Jul_10_1447,toilet,2021.1.3,99.91706880626961,
0,0,4,-4,0.97,,,,,0,0,0,0,1,12,68,9,,,,,,,,,,,,,,,,,,,,,,,479.88558459997876,None,479.88558459997876,None,479.3851750000031,None,j,2.6025043000117876,479.88558459997876,None,,,,,,,,,,,,,q,001,2021_Jul_10_1447,toilet,2021.1.3,99.91706880626961,
0,0,4,-4,1.06,,,,,0,0,0,0,1,13,69,12,,,,,,,,,,,,,,,,,,,,,,,483.48796130000846,None,483.48796130000846,None,482.9876222999883,None,f,0.728051099984441,483.48796130000846,None,,,,,,,,,,,,,q,001,2021_Jul_10_1447,toilet,2021.1.3,99.91706880626961,
180,0,4,-4,0.85,,,,,0,0,0,0,1,14,70,49,,,,,,,,,,,,,,,,,,,,,,,485.21913510002196,None,485.21913510002196,None,484.7187965000048,None,j,0.645114500017371,485.21913510002196,None,,,,,,,,,,,,,q,001,2021_Jul_10_1447,toilet,2021.1.3,99.91706880626961,
180,0,4,-4,1.03,,,,,0,0,0,0,1,15,71,53,,,,,,,,,,,,,,,,,,,,,,,486.88025360001484,None,486.88025360001484,None,486.3799198999768,None,f,0.9198086999822408,486.88025360001484,None,,,,,,,,,,,,,q,001,2021_Jul_10_1447,toilet,2021.1.3,99.91706880626961,
180,0,4,-4,0.97,,,,,0,0,0,0,1,16,72,51,,,,,,,,,,,,,,,,,,,,,,,488.81157469999744,None,488.81157469999744,None,488.3113181000226,None,j,1.3564287000335753,488.81157469999744,None,,,,,,,,,,,,,q,001,2021_Jul_10_1447,toilet,2021.1.3,99.91706880626961,
0,180,4,-4,0.94,,,,,0,0,0,0,1,17,73,22,,,,,,,,,,,,,,,,,,,,,,,491.17317319998983,None,491.17317319998983,None,490.67283400002634,None,j,1.1389516000053845,491.17317319998983,None,,,,,,,,,,,,,q,001,2021_Jul_10_1447,toilet,2021.1.3,99.91706880626961,
0,0,-4,4,1.0,,,,,0,0,0,0,1,18,74,3,,,,,,,,,,,,,,,,,,,,,,,493.324632200005,None,493.324632200005,None,492.8242914000293,None,j,0.9554742000182159,493.324632200005,None,,,,,,,,,,,,,q,001,2021_Jul_10_1447,toilet,2021.1.3,99.91706880626961,
180,180,-4,4,1.15,,,,,0,0,0,0,1,19,75,34,,,,,,,,,,,,,,,,,,,,,,,495.2860367000103,None,495.2860367000103,None,494.78562470001634,None,j,0.7059694999479689,495.2860367000103,None,,,,,,,,,,,,,q,001,2021_Jul_10_1447,toilet,2021.1.3,99.91706880626961,
0,0,4,-4,0.85,,,,,0,0,0,0,1,20,76,7,,,,,,,,,,,,,,,,,,,,,,,497.0071315999958,None,497.0071315999958,None,496.5067930999794,None,j,1.0490628000115976,497.0071315999958,None,,,,,,,,,,,,,q,001,2021_Jul_10_1447,toilet,2021.1.3,99.91706880626961,
180,180,-4,4,0.94,,,,,0,0,0,0,1,21,77,29,,,,,,,,,,,,,,,,,,,,,,,499.0685276000295,None,499.0685276000295,None,498.5681902000215,None,f,0.6996768999961205,499.0685276000295,None,,,,,,,,,,,,,q,001,2021_Jul_10_1447,toilet,2021.1.3,99.91706880626961,
0,0,4,-4,1.15,,,,,0,0,0,0,1,22,78,13,,,,,,,,,,,,,,,,,,,,,,,500.77968899998814,None,500.77968899998814,None,500.2793486000155,None,f,0.6525015000370331,500.77968899998814,None,,,,,,,,,,,,,q,001,2021_Jul_10_1447,toilet,2021.1.3,99.91706880626961,
0,180,-4,4,1.06,,,,,0,0,0,0,1,23,79,19,,,,,,,,,,,,,,,,,,,,,,,502.45091150002554,None,502.45091150002554,None,501.95056169998134,None,j,0.8212674999958836,502.45091150002554,None,,,,,,,,,,,,,q,001,2021_Jul_10_1447,toilet,2021.1.3,99.91706880626961,
0,0,-4,4,1.03,,,,,0,0,0,0,1,24,80,4,,,,,,,,,,,,,,,,,,,,,,,504.2820651999791,None,504.2820651999791,None,503.78172389999963,None,j,3.5180718999472447,504.2820651999791,None,,,,,,,,,,,,,q,001,2021_Jul_10_1447,toilet,2021.1.3,99.91706880626961,
180,0,-4,4,0.97,,,,,0,0,0,0,1,25,81,44,,,,,,,,,,,,,,,,,,,,,,,508.8152172000264,None,508.8152172000264,None,508.31480510003166,None,f,0.7929807000327855,508.8152172000264,None,,,,,,,,,,,,,q,001,2021_Jul_10_1447,toilet,2021.1.3,99.91706880626961,
0,0,4,-4,1.03,,,,,0,0,0,0,1,26,82,11,,,,,,,,,,,,,,,,,,,,,,,510.6263865000219,None,510.6263865000219,None,510.1260515000322,None,f,1.9417103999876417,510.6263865000219,None,,,,,,,,,,,,,q,001,2021_Jul_10_1447,toilet,2021.1.3,99.91706880626961,
0,180,4,-4,1.0,,,,,0,0,0,0,1,27,83,24,,,,,,,,,,,,,,,,,,,,,,,513.5683685999829,None,513.5683685999829,None,513.0680192,None,f,0.69571309996536,513.5683685999829,None,,,,,,,,,,,,,q,001,2021_Jul_10_1447,toilet,2021.1.3,99.91706880626961,
180,0,4,-4,1.0,,,,,0,0,0,0,1,28,84,52,,,,,,,,,,,,,,,,,,,,,,,515.2695190000231,None,515.2695190000231,None,514.7691794999992,None,j,1.922549800015986,515.2695190000231,None,,,,,,,,,,,,,q,001,2021_Jul_10_1447,toilet,2021.1.3,99.91706880626961,
0,0,4,-4,0.94,,,,,0,0,0,0,1,29,85,8,,,,,,,,,,,,,,,,,,,,,,,518.2015094999806,None,518.2015094999806,None,517.7012377000065,None,j,0.7344836999545805,518.2015094999806,None,,,,,,,,,,,,,q,001,2021_Jul_10_1447,toilet,2021.1.3,99.91706880626961,
180,0,-4,4,0.94,,,,,0,0,0,0,1,30,86,43,,,,,,,,,,,,,,,,,,,,,,,519.9426944000297,None,519.9426944000297,None,519.4423502000282,None,f,0.7533765999833122,519.9426944000297,None,,,,,,,,,,,,,q,001,2021_Jul_10_1447,toilet,2021.1.3,99.91706880626961,
0,180,-4,4,0.97,,,,,0,0,0,0,1,31,87,16,,,,,,,,,,,,,,,,,,,,,,,521.7038812999963,None,521.7038812999963,None,521.2035440999898,None,f,4.528298699995503,521.7038812999963,None,,,,,,,,,,,,,q,001,2021_Jul_10_1447,toilet,2021.1.3,99.91706880626961,
180,0,-4,4,1.06,,,,,0,0,0,0,1,32,88,47,,,,,,,,,,,,,,,,,,,,,,,527.2376740000327,None,527.2376740000327,None,526.7373078999808,None,j,1.3143404999864288,527.2376740000327,None,,,,,,,,,,,,,q,001,2021_Jul_10_1447,toilet,2021.1.3,99.91706880626961,
180,180,4,-4,0.94,,,,,0,0,0,0,1,33,89,36,,,,,,,,,,,,,,,,,,,,,,,529.5592142000096,None,529.5592142000096,None,529.0588785000145,None,j,0.7372262999997474,529.5592142000096,None,,,,,,,,,,,,,q,001,2021_Jul_10_1447,toilet,2021.1.3,99.91706880626961,
180,180,4,-4,0.97,,,,,0,0,0,0,1,34,90,37,,,,,,,,,,,,,,,,,,,,,,,531.3104029999813,None,531.3104029999813,None,530.810142100032,None,j,2.601673799974378,531.3104029999813,None,,,,,,,,,,,,,q,001,2021_Jul_10_1447,toilet,2021.1.3,99.91706880626961,
180,180,-4,4,1.0,,,,,0,0,0,0,1,35,91,31,,,,,,,,,,,,,,,,,,,,,,,534.9128533999901,None,534.9128533999901,None,534.4125068000285,None,j,1.6711297000292689,534.9128533999901,None,,,,,,,,,,,,,q,001,2021_Jul_10_1447,toilet,2021.1.3,99.91706880626961,
180,0,-4,4,0.85,,,,,0,0,0,0,1,36,92,42,,,,,,,,,,,,,,,,,,,,,,,537.5846557000186,None,537.5846557000186,None,537.0843191000167,None,f,0.5833939000149257,537.5846557000186,None,,,,,,,,,,,,,q,001,2021_Jul_10_1447,toilet,2021.1.3,99.91706880626961,
180,0,4,-4,0.94,,,,,0,0,0,0,1,37,93,50,,,,,,,,,,,,,,,,,,,,,,,539.1857597000198,None,539.1857597000198,None,538.6854488999816,None,j,0.6145114999962971,539.1857597000198,None,,,,,,,,,,,,,q,001,2021_Jul_10_1447,toilet,2021.1.3,99.91706880626961,
180,0,-4,4,1.0,,,,,0,0,0,0,1,38,94,45,,,,,,,,,,,,,,,,,,,,,,,540.8168523000204,None,540.8168523000204,None,540.3165127999964,None,j,2.7432514000101946,540.8168523000204,None,,,,,,,,,,,,,q,001,2021_Jul_10_1447,toilet,2021.1.3,99.91706880626961,
180,0,4,-4,1.06,,,,,0,0,0,0,1,39,95,54,,,,,,,,,,,,,,,,,,,,,,,544.5794070999837,None,544.5794070999837,None,544.0790690000285,None,f,0.788668199966196,544.5794070999837,None,,,,,,,,,,,,,q,001,2021_Jul_10_1447,toilet,2021.1.3,99.91706880626961,
180,180,4,-4,1.0,,,,,0,0,0,0,1,40,96,38,,,,,,,,,,,,,,,,,,,,,,,546.3807065000292,None,546.3807065000292,None,545.880358800001,None,j,1.0834665999864228,546.3807065000292,None,,,,,,,,,,,,,q,001,2021_Jul_10_1447,toilet,2021.1.3,99.91706880626961,
0,0,4,-4,1.0,,,,,0,0,0,0,1,41,97,10,,,,,,,,,,,,,,,,,,,,,,,548.4820547000272,None,548.4820547000272,None,547.9817181000253,None,j,1.4940365999937057,548.4820547000272,None,,,,,,,,,,,,,q,001,2021_Jul_10_1447,toilet,2021.1.3,99.91706880626961,
0,180,4,-4,0.97,,,,,0,0,0,0,1,42,98,23,,,,,,,,,,,,,,,,,,,,,,,550.9937539999955,None,550.9937539999955,None,550.4934164999868,None,j,1.814402699994389,550.9937539999955,None,,,,,,,,,,,,,q,001,2021_Jul_10_1447,toilet,2021.1.3,99.91706880626961,
180,180,4,-4,0.85,,,,,0,0,0,0,1,43,99,35,,,,,,,,,,,,,,,,,,,,,,,553.8256797000067,None,553.8256797000067,None,553.3254216000205,None,j,0.5664273999864236,553.8256797000067,None,,,,,,,,,,,,,q,001,2021_Jul_10_1447,toilet,2021.1.3,99.91706880626961,
0,180,-4,4,0.94,,,,,0,0,0,0,1,44,100,15,,,,,,,,,,,,,,,,,,,,,,,555.4067678999854,None,555.4067678999854,None,554.9064085999853,None,f,0.6012250000494532,555.4067678999854,None,,,,,,,,,,,,,q,001,2021_Jul_10_1447,toilet,2021.1.3,99.91706880626961,
0,180,-4,4,0.85,,,,,0,0,0,0,1,45,101,14,,,,,,,,,,,,,,,,,,,,,,,557.007841899991,None,557.007841899991,None,556.5075005000108,None,f,0.53626439999789,557.007841899991,None,,,,,,,,,,,,,q,001,2021_Jul_10_1447,toilet,2021.1.3,99.91706880626961,
180,0,-4,4,1.03,,,,,0,0,0,0,1,46,102,46,,,,,,,,,,,,,,,,,,,,,,,558.5488801000174,None,558.5488801000174,None,558.0485399999889,None,j,1.9551035999902524,558.5488801000174,None,,,,,,,,,,,,,q,001,2021_Jul_10_1447,toilet,2021.1.3,99.91706880626961,
0,180,-4,4,1.03,,,,,0,0,0,0,1,47,103,18,,,,,,,,,,,,,,,,,,,,,,,561.5109758999897,None,561.5109758999897,None,561.010630499979,None,j,1.1689939000061713,561.5109758999897,None,,,,,,,,,,,,,q,001,2021_Jul_10_1447,toilet,2021.1.3,99.91706880626961,
180,0,-4,4,1.15,,,,,0,0,0,0,1,48,104,48,,,,,,,,,,,,,,,,,,,,,,,563.6823622999946,None,563.6823622999946,None,563.1820235999767,None,j,0.6136138000292704,563.6823622999946,None,,,,,,,,,,,,,q,001,2021_Jul_10_1447,toilet,2021.1.3,99.91706880626961,
180,180,-4,4,1.06,,,,,0,0,0,0,1,49,105,33,,,,,,,,,,,,,,,,,,,,,,,565.3034629999893,None,565.3034629999893,None,564.8031270999927,None,j,0.6566865000058897,565.3034629999893,None,,,,,,,,,,,,,q,001,2021_Jul_10_1447,toilet,2021.1.3,99.91706880626961,
180,180,4,-4,1.06,,,,,0,0,0,0,1,50,106,40,,,,,,,,,,,,,,,,,,,,,,,566.9846028999891,None,566.9846028999891,None,566.4842625000165,None,f,0.7353772000060417,566.9846028999891,None,,,,,,,,,,,,,q,001,2021_Jul_10_1447,toilet,2021.1.3,99.91706880626961,
0,180,-4,4,1.0,,,,,0,0,0,0,1,51,107,17,,,,,,,,,,,,,,,,,,,,,,,568.7258032999816,None,568.7258032999816,None,568.2255299999961,None,f,5.538379400037229,568.7258032999816,None,,,,,,,,,,,,,q,001,2021_Jul_10_1447,toilet,2021.1.3,99.91706880626961,
0,180,4,-4,1.06,,,,,0,0,0,0,1,52,108,26,,,,,,,,,,,,,,,,,,,,,,,575.2803221999784,None,575.2803221999784,None,574.7799211000092,None,f,2.2796180000295863,575.2803221999784,None,,,,,,,,,,,,,q,001,2021_Jul_10_1447,toilet,2021.1.3,99.91706880626961,
180,180,-4,4,0.85,,,,,0,0,0,0,1,53,109,28,,,,,,,,,,,,,,,,,,,,,,,578.5624538999982,None,578.5624538999982,None,578.0621466999874,None,f,0.5978899000328965,578.5624538999982,None,,,,,,,,,,,,,q,001,2021_Jul_10_1447,toilet,2021.1.3,99.91706880626961,
0,180,4,-4,1.15,,,,,0,0,0,0,1,54,110,27,,,,,,,,,,,,,,,,,,,,,,,580.1735532000312,None,580.1735532000312,None,579.673210399982,None,f,0.6984347999677993,580.1735532000312,None,,,,,,,,,,,,,q,001,2021_Jul_10_1447,toilet,2021.1.3,99.91706880626961,
0,180,-4,4,1.15,,,,,0,0,0,0,1,55,111,20,,,,,,,,,,,,,,,,,,,,,,,581.8746976000257,None,581.8746976000257,None,581.3743729999987,None,j,0.5492786999675445,581.8746976000257,None,,,,,,,,,,,,,q,001,2021_Jul_10_1447,toilet,2021.1.3,99.91706880626961,
,,,,,,,,,0,0,0,0,,,,,,,,,,,,,,,,,,,,,,,,,,,,,,,,,,,,,582.4350802000263,None,space,55.236911199986935,582.4350802000263,None,,,,,,,q,001,2021_Jul_10_1447,toilet,2021.1.3,99.91706880626961,
180,180,4,-4,0.97,,,,,1,0,1,0,0,0,0,37,,,,,,,,,,,,,,,,,637.6825649000239,None,space,3.5255295999813825,637.6825649000239,None,642.2356511999969,None,642.2356511999969,None,641.7353859000141,None,j,0.9564184999908321,642.2356511999969,None,,,,,,,,,,,,,q,001,2021_Jul_10_1447,toilet,2021.1.3,99.91706880626961,
0,180,4,-4,0.97,,,,,1,0,1,0,0,1,1,23,,,,,,,,,,,,,,,,,,,,,,,644.206990799983,None,644.206990799983,None,643.7066606000299,None,f,1.9291500999825075,644.206990799983,None,,,,,,,,,,,,,q,001,2021_Jul_10_1447,toilet,2021.1.3,99.91706880626961,
180,0,4,-4,1.0,,,,,1,0,1,0,0,2,2,52,,,,,,,,,,,,,,,,,,,,,,,647.1489845000324,None,647.1489845000324,None,646.6486486999784,None,f,0.8590381999965757,647.1489845000324,None,,,,,,,,,,,,,q,001,2021_Jul_10_1447,toilet,2021.1.3,99.91706880626961,
0,180,-4,4,1.15,,,,,1,0,1,0,0,3,3,20,,,,,,,,,,,,,,,,,,,,,,,649.0203375000274,None,649.0203375000274,None,648.519950899994,None,j,0.6358459999901243,649.0203375000274,None,,,,,,,,,,,,,q,001,2021_Jul_10_1447,toilet,2021.1.3,99.91706880626961,
180,180,-4,4,0.85,,,,,1,0,1,0,0,4,4,28,,,,,,,,,,,,,,,,,,,,,,,650.6714139999822,None,650.6714139999822,None,650.1711243999889,None,f,0.5205751999747008,650.6714139999822,None,,,,,,,,,,,,,q,001,2021_Jul_10_1447,toilet,2021.1.3,99.91706880626961,
0,0,-4,4,1.0,,,,,1,0,1,0,0,5,5,3,,,,,,,,,,,,,,,,,,,,,,,652.1924165000091,None,652.1924165000091,None,651.692068000033,None,f,1.7836299000191502,652.1924165000091,None,,,,,,,,,,,,,q,001,2021_Jul_10_1447,toilet,2021.1.3,99.91706880626961,
0,180,-4,4,1.06,,,,,1,0,1,0,0,6,6,19,,,,,,,,,,,,,,,,,,,,,,,654.9943101999816,None,654.9943101999816,None,654.494006199995,None,j,1.1897223999840207,654.9943101999816,None,,,,,,,,,,,,,q,001,2021_Jul_10_1447,toilet,2021.1.3,99.91706880626961,
180,180,4,-4,1.06,,,,,1,0,1,0,0,7,7,40,,,,,,,,,,,,,,,,,,,,,,,657.1958900000318,None,657.1958900000318,None,656.6954742000089,None,f,0.6041460999986157,657.1958900000318,None,,,,,,,,,,,,,q,001,2021_Jul_10_1447,toilet,2021.1.3,99.91706880626961,
180,180,-4,4,0.97,,,,,1,0,1,0,0,8,8,30,,,,,,,,,,,,,,,,,,,,,,,658.8068933000322,None,658.8068933000322,None,658.3065598999965,None,f,0.8490392999956384,658.8068933000322,None,,,,,,,,,,,,,q,001,2021_Jul_10_1447,toilet,2021.1.3,99.91706880626961,
180,180,-4,4,1.0,,,,,1,0,1,0,0,9,9,31,,,,,,,,,,,,,,,,,,,,,,,660.6581510999822,None,660.6581510999822,None,660.1578414000105,None,f,3.589868300012313,660.6581510999822,None,,,,,,,,,,,,,q,001,2021_Jul_10_1447,toilet,2021.1.3,99.91706880626961,
180,180,4,-4,0.85,,,,,1,0,1,0,0,10,10,35,,,,,,,,,,,,,,,,,,,,,,,665.2613041999866,None,665.2613041999866,None,664.7609269000241,None,j,0.4747786999796517,665.2613041999866,None,,,,,,,,,,,,,q,001,2021_Jul_10_1447,toilet,2021.1.3,99.91706880626961,
180,0,4,-4,0.94,,,,,1,0,1,0,0,11,11,50,,,,,,,,,,,,,,,,,,,,,,,666.7422708999948,None,666.7422708999948,None,666.2419310000259,None,j,1.2658470000023954,666.7422708999948,None,,,,,,,,,,,,,q,001,2021_Jul_10_1447,toilet,2021.1.3,99.91706880626961,
180,0,-4,4,1.15,,,,,1,0,1,0,0,12,12,48,,,,,,,,,,,,,,,,,,,,,,,669.0238155000261,None,669.0238155000261,None,668.5234805999789,None,j,0.6643877999740653,669.0238155000261,None,,,,,,,,,,,,,q,001,2021_Jul_10_1447,toilet,2021.1.3,99.91706880626961,
180,0,-4,4,0.94,,,,,1,0,1,0,0,13,13,43,,,,,,,,,,,,,,,,,,,,,,,670.7049973999965,None,670.7049973999965,None,670.2046219999902,None,f,0.8710145999793895,670.7049973999965,None,,,,,,,,,,,,,q,001,2021_Jul_10_1447,toilet,2021.1.3,99.91706880626961,
0,0,-4,4,1.03,,,,,1,0,1,0,0,14,14,4,,,,,,,,,,,,,,,,,,,,,,,672.5862717999844,None,672.5862717999844,None,672.0859848000109,None,f,0.7337621999904513,672.5862717999844,None,,,,,,,,,,,,,q,001,2021_Jul_10_1447,toilet,2021.1.3,99.91706880626961,
0,180,4,-4,1.15,,,,,1,0,1,0,0,15,15,27,,,,,,,,,,,,,,,,,,,,,,,674.3274221000029,None,674.3274221000029,None,673.8270828999812,None,f,0.5765861999825574,674.3274221000029,None,,,,,,,,,,,,,q,001,2021_Jul_10_1447,toilet,2021.1.3,99.91706880626961,
180,0,4,-4,0.97,,,,,1,0,1,0,0,16,16,51,,,,,,,,,,,,,,,,,,,,,,,675.9084945999784,None,675.9084945999784,None,675.4081568000256,None,j,0.7394849000265822,675.9084945999784,None,,,,,,,,,,,,,q,001,2021_Jul_10_1447,toilet,2021.1.3,99.91706880626961,
0,0,4,-4,0.94,,,,,1,0,1,0,0,17,17,8,,,,,,,,,,,,,,,,,,,,,,,677.6596836000099,None,677.6596836000099,None,677.1593465000042,None,j,1.420334600028582,677.6596836000099,None,,,,,,,,,,,,,q,001,2021_Jul_10_1447,toilet,2021.1.3,99.91706880626961,
180,0,-4,4,0.97,,,,,1,0,1,0,0,18,18,44,,,,,,,,,,,,,,,,,,,,,,,680.0913685000269,None,680.0913685000269,None,679.5910232000169,None,f,0.8926581999985501,680.0913685000269,None,,,,,,,,,,,,,q,001,2021_Jul_10_1447,toilet,2021.1.3,99.91706880626961,
0,0,-4,4,1.15,,,,,1,0,1,0,0,19,19,6,,,,,,,,,,,,,,,,,,,,,,,681.992623099999,None,681.992623099999,None,681.4922824000241,None,j,0.49555779999354854,681.992623099999,None,,,,,,,,,,,,,q,001,2021_Jul_10_1447,toilet,2021.1.3,99.91706880626961,
0,180,4,-4,0.94,,,,,1,0,1,0,0,20,20,22,,,,,,,,,,,,,,,,,,,,,,,683.5136410000268,None,683.5136410000268,None,683.0133167000022,None,j,1.1823943000053987,683.5136410000268,None,,,,,,,,,,,,,q,001,2021_Jul_10_1447,toilet,2021.1.3,99.91706880626961,
0,0,-4,4,1.06,,,,,1,0,1,0,0,21,21,5,,,,,,,,,,,,,,,,,,,,,,,685.7051448000129,None,685.7051448000129,None,685.2048758000019,None,f,2.158788100001402,685.7051448000129,None,,,,,,,,,,,,,q,001,2021_Jul_10_1447,toilet,2021.1.3,99.91706880626961,
180,0,4,-4,1.06,,,,,1,0,1,0,0,22,22,54,,,,,,,,,,,,,,,,,,,,,,,688.8672845999827,None,688.8672845999827,None,688.3669430000009,None,f,0.7566581999999471,688.8672845999827,None,,,,,,,,,,,,,q,001,2021_Jul_10_1447,toilet,2021.1.3,99.91706880626961,
180,0,-4,4,1.03,,,,,1,0,1,0,0,23,23,46,,,,,,,,,,,,,,,,,,,,,,,690.6284827000345,None,690.6284827000345,None,690.1281443000189,None,f,2.115452500001993,690.6284827000345,None,,,,,,,,,,,,,q,001,2021_Jul_10_1447,toilet,2021.1.3,99.91706880626961,
180,180,4,-4,0.94,,,,,1,0,1,0,0,24,24,36,,,,,,,,,,,,,,,,,,,,,,,693.7506832000217,None,693.7506832000217,None,693.2503368000034,None,j,0.49735170003259555,693.7506832000217,None,,,,,,,,,,,,,q,001,2021_Jul_10_1447,toilet,2021.1.3,99.91706880626961,
0,180,4,-4,0.85,,,,,1,0,1,0,0,25,25,21,,,,,,,,,,,,,,,,,,,,,,,695.2516198999947,None,695.2516198999947,None,694.7513108000276,None,j,0.628317299997434,695.2516198999947,None,,,,,,,,,,,,,q,001,2021_Jul_10_1447,toilet,2021.1.3,99.91706880626961,
0,180,-4,4,1.0,,,,,1,0,1,0,0,26,26,17,,,,,,,,,,,,,,,,,,,,,,,696.8827247000299,None,696.8827247000299,None,696.3823828999884,None,f,1.701282900001388,696.8827247000299,None,,,,,,,,,,,,,q,001,2021_Jul_10_1447,toilet,2021.1.3,99.91706880626961,
0,0,4,-4,0.85,,,,,1,0,1,0,0,27,27,7,,,,,,,,,,,,,,,,,,,,,,,699.594559899997,None,699.594559899997,None,699.0942260000156,None,j,0.5414576000184752,699.594559899997,None,,,,,,,,,,,,,q,001,2021_Jul_10_1447,toilet,2021.1.3,99.91706880626961,
180,180,4,-4,1.0,,,,,1,0,1,0,0,28,28,38,,,,,,,,,,,,,,,,,,,,,,,701.1456924999948,None,701.1456924999948,None,700.6452746000141,None,f,1.16622750001261,701.1456924999948,None,,,,,,,,,,,,,q,001,2021_Jul_10_1447,toilet,2021.1.3,99.91706880626961,
0,0,4,-4,1.0,,,,,1,0,1,0,0,29,29,10,,,,,,,,,,,,,,,,,,,,,,,703.3170866,None,703.3170866,None,702.8167461000266,None,f,0.6588670000201091,703.3170866,None,,,,,,,,,,,,,q,001,2021_Jul_10_1447,toilet,2021.1.3,99.91706880626961,
0,180,-4,4,0.85,,,,,1,0,1,0,0,30,30,14,,,,,,,,,,,,,,,,,,,,,,,704.9782144000055,None,704.9782144000055,None,704.4778778000036,None,f,0.6456933000008576,704.9782144000055,None,,,,,,,,,,,,,q,001,2021_Jul_10_1447,toilet,2021.1.3,99.91706880626961,
180,180,4,-4,1.15,,,,,1,0,1,0,0,31,31,41,,,,,,,,,,,,,,,,,,,,,,,706.6293431000086,None,706.6293431000086,None,706.1289924000157,None,f,0.5947854000260122,706.6293431000086,None,,,,,,,,,,,,,q,001,2021_Jul_10_1447,toilet,2021.1.3,99.91706880626961,
180,0,-4,4,1.0,,,,,1,0,1,0,0,32,32,45,,,,,,,,,,,,,,,,,,,,,,,708.2404330000281,None,708.2404330000281,None,707.7401684999932,None,j,1.1274827999877743,708.2404330000281,None,,,,,,,,,,,,,q,001,2021_Jul_10_1447,toilet,2021.1.3,99.91706880626961,
180,0,4,-4,0.85,,,,,1,0,1,0,0,33,33,49,,,,,,,,,,,,,,,,,,,,,,,710.3718681000173,None,710.3718681000173,None,709.8715630000224,None,j,0.5160482000210322,710.3718681000173,None,,,,,,,,,,,,,q,001,2021_Jul_10_1447,toilet,2021.1.3,99.91706880626961,
180,180,4,-4,1.03,,,,,1,0,1,0,0,34,34,39,,,,,,,,,,,,,,,,,,,,,,,711.8928979000193,None,711.8928979000193,None,711.392555999977,None,f,0.6271934999967925,711.8928979000193,None,,,,,,,,,,,,,q,001,2021_Jul_10_1447,toilet,2021.1.3,99.91706880626961,
0,180,4,-4,1.06,,,,,1,0,1,0,0,35,35,26,,,,,,,,,,,,,,,,,,,,,,,713.5340108000091,None,713.5340108000091,None,713.0336718999897,None,f,0.5221245000138879,713.5340108000091,None,,,,,,,,,,,,,q,001,2021_Jul_10_1447,toilet,2021.1.3,99.91706880626961,
0,0,-4,4,0.94,,,,,1,0,1,0,0,36,36,1,,,,,,,,,,,,,,,,,,,,,,,715.0750565000344,None,715.0750565000344,None,714.5747171000112,None,f,0.6128870999673381,715.0750565000344,None,,,,,,,,,,,,,q,001,2021_Jul_10_1447,toilet,2021.1.3,99.91706880626961,
0,180,-4,4,1.03,,,,,1,0,1,0,0,37,37,18,,,,,,,,,,,,,,,,,,,,,,,716.6962003000081,None,716.6962003000081,None,716.1959064999828,None,j,1.3757346000056714,716.6962003000081,None,,,,,,,,,,,,,q,001,2021_Jul_10_1447,toilet,2021.1.3,99.91706880626961,
0,0,4,-4,1.03,,,,,1,0,1,0,0,38,38,11,,,,,,,,,,,,,,,,,,,,,,,719.0777786999824,None,719.0777786999824,None,718.5774362999946,None,f,0.8662963000242598,719.0777786999824,None,,,,,,,,,,,,,q,001,2021_Jul_10_1447,toilet,2021.1.3,99.91706880626961,
180,0,4,-4,1.15,,,,,1,0,1,0,0,39,39,55,,,,,,,,,,,,,,,,,,,,,,,720.9590518000186,None,720.9590518000186,None,720.4587150000152,None,f,0.5851777999778278,720.9590518000186,None,,,,,,,,,,,,,q,001,2021_Jul_10_1447,toilet,2021.1.3,99.91706880626961,
180,0,-4,4,0.85,,,,,1,0,1,0,0,40,40,42,,,,,,,,,,,,,,,,,,,,,,,722.5601437999867,None,722.5601437999867,None,722.0598088999977,None,f,0.8077954000327736,722.5601437999867,None,,,,,,,,,,,,,q,001,2021_Jul_10_1447,toilet,2021.1.3,99.91706880626961,
0,0,4,-4,0.97,,,,,1,0,1,0,0,41,41,9,,,,,,,,,,,,,,,,,,,,,,,724.3713694000035,None,724.3713694000035,None,723.8710371000343,None,j,0.5965037000132725,724.3713694000035,None,,,,,,,,,,,,,q,001,2021_Jul_10_1447,toilet,2021.1.3,99.91706880626961,
0,180,-4,4,0.94,,,,,1,0,1,0,0,42,42,15,,,,,,,,,,,,,,,,,,,,,,,725.972453400027,None,725.972453400027,None,725.4721174000297,None,f,0.611525799962692,725.972453400027,None,,,,,,,,,,,,,q,001,2021_Jul_10_1447,toilet,2021.1.3,99.91706880626961,
0,180,4,-4,1.03,,,,,1,0,1,0,0,43,43,25,,,,,,,,,,,,,,,,,,,,,,,727.5835822999943,None,727.5835822999943,None,727.0832093000063,None,f,2.5043367000180297,727.5835822999943,None,,,,,,,,,,,,,q,001,2021_Jul_10_1447,toilet,2021.1.3,99.91706880626961,
0,0,4,-4,1.15,,,,,1,0,1,0,0,44,44,13,,,,,,,,,,,,,,,,,,,,,,,731.0959992000135,None,731.0959992000135,None,730.5956799000269,None,f,0.5760346000315621,731.0959992000135,None,,,,,,,,,,,,,q,001,2021_Jul_10_1447,toilet,2021.1.3,99.91706880626961,
180,0,4,-4,1.03,,,,,1,0,1,0,0,45,45,53,,,,,,,,,,,,,,,,,,,,,,,732.6770140000153,None,732.6770140000153,None,732.1766904999968,None,f,1.5710146999917924,732.6770140000153,None,,,,,,,,,,,,,q,001,2021_Jul_10_1447,toilet,2021.1.3,99.91706880626961,
180,180,-4,4,0.94,,,,,1,0,1,0,0,46,46,29,,,,,,,,,,,,,,,,,,,,,,,735.2587498999783,None,735.2587498999783,None,734.7584218999837,None,f,0.7653155999723822,735.2587498999783,None,,,,,,,,,,,,,q,001,2021_Jul_10_1447,toilet,2021.1.3,99.91706880626961,
0,180,4,-4,1.0,,,,,1,0,1,0,0,47,47,24,,,,,,,,,,,,,,,,,,,,,,,737.039960700029,None,737.039960700029,None,736.5397159000277,None,j,2.8559528999612667,737.039960700029,None,,,,,,,,,,,,,q,001,2021_Jul_10_1447,toilet,2021.1.3,99.91706880626961,
180,180,-4,4,1.15,,,,,1,0,1,0,0,48,48,34,,,,,,,,,,,,,,,,,,,,,,,740.9025800999952,None,740.9025800999952,None,740.4022469000192,None,j,0.545324900012929,740.9025800999952,None,,,,,,,,,,,,,q,001,2021_Jul_10_1447,toilet,2021.1.3,99.91706880626961,
0,180,-4,4,0.97,,,,,1,0,1,0,0,49,49,16,,,,,,,,,,,,,,,,,,,,,,,742.4536348999827,None,742.4536348999827,None,741.9532930999994,None,f,1.8585339999990538,742.4536348999827,None,,,,,,,,,,,,,q,001,2021_Jul_10_1447,toilet,2021.1.3,99.91706880626961,
0,0,-4,4,0.97,,,,,1,0,1,0,0,50,50,2,,,,,,,,,,,,,,,,,,,,,,,745.3256699999911,None,745.3256699999911,None,744.8253403999843,None,f,0.9544312999933027,745.3256699999911,None,,,,,,,,,,,,,q,001,2021_Jul_10_1447,toilet,2021.1.3,99.91706880626961,
180,180,-4,4,1.06,,,,,1,0,1,0,0,51,51,33,,,,,,,,,,,,,,,,,,,,,,,747.2969147000113,None,747.2969147000113,None,746.7965796000208,None,j,0.5670735000167042,747.2969147000113,None,,,,,,,,,,,,,q,001,2021_Jul_10_1447,toilet,2021.1.3,99.91706880626961,
0,0,-4,4,0.85,,,,,1,0,1,0,0,52,52,0,,,,,,,,,,,,,,,,,,,,,,,748.8679831000045,None,748.8679831000045,None,748.3676400000113,None,f,0.6121311000315472,748.8679831000045,None,,,,,,,,,,,,,q,001,2021_Jul_10_1447,toilet,2021.1.3,99.91706880626961,
0,0,4,-4,1.06,,,,,1,0,1,0,0,53,53,12,,,,,,,,,,,,,,,,,,,,,,,750.4890754999942,None,750.4890754999942,None,749.9887378999847,None,f,0.7029069000273012,750.4890754999942,None,,,,,,,,,,,,,q,001,2021_Jul_10_1447,toilet,2021.1.3,99.91706880626961,
180,180,-4,4,1.03,,,,,1,0,1,0,0,54,54,32,,,,,,,,,,,,,,,,,,,,,,,752.200327700004,None,752.200327700004,None,751.6999034000328,None,j,1.5838029999868013,752.200327700004,None,,,,,,,,,,,,,q,001,2021_Jul_10_1447,toilet,2021.1.3,99.91706880626961,
180,0,-4,4,1.06,,,,,1,0,1,0,0,55,55,47,,,,,,,,,,,,,,,,,,,,,,,754.8020117999986,None,754.8020117999986,None,754.3016684000031,None,j,0.7419804999954067,754.8020117999986,None,,,,,,,,,,,,,q,001,2021_Jul_10_1447,toilet,2021.1.3,99.91706880626961,
180,0,4,-4,1.15,,,,,1,0,1,0,1,0,56,55,,,,,,,,,,,,,,,,,,,,,,,756.5531929000281,None,756.5531929000281,None,756.0528517999919,None,f,0.6388195999898016,756.5531929000281,None,,,,,,,,,,,,,q,001,2021_Jul_10_1447,toilet,2021.1.3,99.91706880626961,
180,0,4,-4,1.03,,,,,1,0,1,0,1,1,57,53,,,,,,,,,,,,,,,,,,,,,,,758.2043334000045,None,758.2043334000045,None,757.7039718999877,None,f,1.0356375000556,758.2043334000045,None,,,,,,,,,,,,,q,001,2021_Jul_10_1447,toilet,2021.1.3,99.91706880626961,
180,0,4,-4,0.94,,,,,1,0,1,0,1,2,58,50,,,,,,,,,,,,,,,,,,,,,,,760.2557912000339,None,760.2557912000339,None,759.7553656999953,None,j,0.6802706000162289,760.2557912000339,None,,,,,,,,,,,,,q,001,2021_Jul_10_1447,toilet,2021.1.3,99.91706880626961,
0,0,4,-4,0.97,,,,,1,0,1,0,1,3,59,9,,,,,,,,,,,,,,,,,,,,,,,761.9468675000244,None,761.9468675000244,None,761.44651660003,None,j,1.501106100040488,761.9468675000244,None,,,,,,,,,,,,,q,001,2021_Jul_10_1447,toilet,2021.1.3,99.91706880626961,
0,180,4,-4,1.0,,,,,1,0,1,0,1,4,60,24,,,,,,,,,,,,,,,,,,,,,,,764.4485543000046,None,764.4485543000046,None,763.9482159999898,None,f,0.7435225999797694,764.4485543000046,None,,,,,,,,,,,,,q,001,2021_Jul_10_1447,toilet,2021.1.3,99.91706880626961,
0,0,-4,4,0.85,,,,,1,0,1,0,1,5,61,0,,,,,,,,,,,,,,,,,,,,,,,766.2098159000161,None,766.2098159000161,None,765.7094279000303,None,f,0.7421912999707274,766.2098159000161,None,,,,,,,,,,,,,q,001,2021_Jul_10_1447,toilet,2021.1.3,99.91706880626961,
0,180,4,-4,0.94,,,,,1,0,1,0,1,6,62,22,,,,,,,,,,,,,,,,,,,,,,,767.9710126999998,None,767.9710126999998,None,767.470676099998,None,j,3.0292084999964572,767.9710126999998,None,,,,,,,,,,,,,q,001,2021_Jul_10_1447,toilet,2021.1.3,99.91706880626961,
0,180,4,-4,0.97,,,,,1,0,1,0,1,7,63,23,,,,,,,,,,,,,,,,,,,,,,,772.0136766000069,None,772.0136766000069,None,771.5133416000172,None,j,1.5144678999786265,772.0136766000069,None,,,,,,,,,,,,,q,001,2021_Jul_10_1447,toilet,2021.1.3,99.91706880626961,
0,0,-4,4,1.03,,,,,1,0,1,0,1,8,64,4,,,,,,,,,,,,,,,,,,,,,,,774.5454797000275,None,774.5454797000275,None,774.0451333000092,None,f,2.694529600034002,774.5454797000275,None,,,,,,,,,,,,,q,001,2021_Jul_10_1447,toilet,2021.1.3,99.91706880626961,
180,180,-4,4,1.0,,,,,1,0,1,0,1,9,65,31,,,,,,,,,,,,,,,,,,,,,,,778.2479177999776,None,778.2479177999776,None,777.7475714000175,None,j,1.823984099959489,778.2479177999776,None,,,,,,,,,,,,,q,001,2021_Jul_10_1447,toilet,2021.1.3,99.91706880626961,
180,0,-4,4,0.94,,,,,1,0,1,0,1,10,66,43,,,,,,,,,,,,,,,,,,,,,,,781.079837199999,None,781.079837199999,None,780.5794952000142,None,f,1.4081714000203647,781.079837199999,None,,,,,,,,,,,,,q,001,2021_Jul_10_1447,toilet,2021.1.3,99.91706880626961,
0,0,4,-4,1.06,,,,,1,0,1,0,1,11,67,12,,,,,,,,,,,,,,,,,,,,,,,783.5014747999958,None,783.5014747999958,None,783.0012146999943,None,f,0.698413000034634,783.5014747999958,None,,,,,,,,,,,,,q,001,2021_Jul_10_1447,toilet,2021.1.3,99.91706880626961,
180,0,4,-4,0.85,,,,,1,0,1,0,1,12,68,49,,,,,,,,,,,,,,,,,,,,,,,785.2026277999976,None,785.2026277999976,None,784.7022906999919,None,j,0.5333606000058353,785.2026277999976,None,,,,,,,,,,,,,q,001,2021_Jul_10_1447,toilet,2021.1.3,99.91706880626961,
0,180,4,-4,1.15,,,,,1,0,1,0,1,13,69,27,,,,,,,,,,,,,,,,,,,,,,,786.7436790000065,None,786.7436790000065,None,786.2433317999821,None,f,0.5443978999974206,786.7436790000065,None,,,,,,,,,,,,,q,001,2021_Jul_10_1447,toilet,2021.1.3,99.91706880626961,
0,0,-4,4,1.15,,,,,1,0,1,0,1,14,70,6,,,,,,,,,,,,,,,,,,,,,,,788.3147808000213,None,788.3147808000213,None,787.8144033999997,None,j,0.5732640000060201,788.3147808000213,None,,,,,,,,,,,,,q,001,2021_Jul_10_1447,toilet,2021.1.3,99.91706880626961,
0,0,-4,4,0.94,,,,,1,0,1,0,1,15,71,1,,,,,,,,,,,,,,,,,,,,,,,789.9059048999916,None,789.9059048999916,None,789.405479500012,None,f,0.6300579999806359,789.9059048999916,None,,,,,,,,,,,,,q,001,2021_Jul_10_1447,toilet,2021.1.3,99.91706880626961,
0,0,-4,4,0.97,,,,,1,0,1,0,1,16,72,2,,,,,,,,,,,,,,,,,,,,,,,791.5469360999996,None,791.5469360999996,None,791.0465975999832,None,f,0.9089499000110663,791.5469360999996,None,,,,,,,,,,,,,q,001,2021_Jul_10_1447,toilet,2021.1.3,99.91706880626961,
180,0,-4,4,0.85,,,,,1,0,1,0,1,17,73,42,,,,,,,,,,,,,,,,,,,,,,,793.4582381999935,None,793.4582381999935,None,792.9578796999995,None,f,0.6617755999905057,793.4582381999935,None,,,,,,,,,,,,,q,001,2021_Jul_10_1447,toilet,2021.1.3,99.91706880626961,
180,0,4,-4,0.97,,,,,1,0,1,0,1,18,74,51,,,,,,,,,,,,,,,,,,,,,,,795.1393638000009,None,795.1393638000009,None,794.6390517000109,None,j,0.6445307999965735,795.1393638000009,None,,,,,,,,,,,,,q,001,2021_Jul_10_1447,toilet,2021.1.3,99.91706880626961,
0,0,4,-4,1.15,,,,,1,0,1,0,1,19,75,13,,,,,,,,,,,,,,,,,,,,,,,796.8005749000004,None,796.8005749000004,None,796.3001562000136,None,f,0.903545499953907,796.8005749000004,None,,,,,,,,,,,,,q,001,2021_Jul_10_1447,toilet,2021.1.3,99.91706880626961,
0,180,-4,4,1.06,,,,,1,0,1,0,1,20,76,19,,,,,,,,,,,,,,,,,,,,,,,798.7217980999849,None,798.7217980999849,None,798.2214651000104,None,j,0.5340781999984756,798.7217980999849,None,,,,,,,,,,,,,q,001,2021_Jul_10_1447,toilet,2021.1.3,99.91706880626961,
0,0,4,-4,0.85,,,,,1,0,1,0,1,21,77,7,,,,,,,,,,,,,,,,,,,,,,,800.2628460000269,None,800.2628460000269,None,799.7625058999984,None,j,1.0891464999876916,800.2628460000269,None,,,,,,,,,,,,,q,001,2021_Jul_10_1447,toilet,2021.1.3,99.91706880626961,
0,180,-4,4,1.15,,,,,1,0,1,0,1,22,78,20,,,,,,,,,,,,,,,,,,,,,,,802.3642707000254,None,802.3642707000254,None,801.8639348000288,None,j,0.5079688999685459,802.3642707000254,None,,,,,,,,,,,,,q,001,2021_Jul_10_1447,toilet,2021.1.3,99.91706880626961,
0,180,4,-4,1.03,,,,,1,0,1,0,1,23,79,25,,,,,,,,,,,,,,,,,,,,,,,803.8953900000197,None,803.8953900000197,None,803.3949723999831,None,f,0.9605656000203453,803.8953900000197,None,,,,,,,,,,,,,q,001,2021_Jul_10_1447,toilet,2021.1.3,99.91706880626961,
0,0,4,-4,1.03,,,,,1,0,1,0,1,24,80,11,,,,,,,,,,,,,,,,,,,,,,,805.8566414000234,None,805.8566414000234,None,805.3563357000239,None,f,0.8392393999965861,805.8566414000234,None,,,,,,,,,,,,,q,001,2021_Jul_10_1447,toilet,2021.1.3,99.91706880626961,
180,180,-4,4,1.03,,,,,1,0,1,0,1,25,81,32,,,,,,,,,,,,,,,,,,,,,,,807.6978899000096,None,807.6978899000096,None,807.1975468000164,None,j,0.5019782999879681,807.6978899000096,None,,,,,,,,,,,,,q,001,2021_Jul_10_1447,toilet,2021.1.3,99.91706880626961,
180,180,4,-4,0.85,,,,,1,0,1,0,1,26,82,35,,,,,,,,,,,,,,,,,,,,,,,809.2089097999851,None,809.2089097999851,None,808.7085750999977,None,j,0.4949927000561729,809.2089097999851,None,,,,,,,,,,,,,q,001,2021_Jul_10_1447,toilet,2021.1.3,99.91706880626961,
180,180,4,-4,0.94,,,,,1,0,1,0,1,27,83,36,,,,,,,,,,,,,,,,,,,,,,,810.7100156000233,None,810.7100156000233,None,810.2095728000277,None,j,0.833887999993749,810.7100156000233,None,,,,,,,,,,,,,q,001,2021_Jul_10_1447,toilet,2021.1.3,99.91706880626961,
0,180,4,-4,0.85,,,,,1,0,1,0,1,28,84,21,,,,,,,,,,,,,,,,,,,,,,,812.5512138999766,None,812.5512138999766,None,812.0509231000324,None,j,0.7847798999864608,812.5512138999766,None,,,,,,,,,,,,,q,001,2021_Jul_10_1447,toilet,2021.1.3,99.91706880626961,
180,180,-4,4,0.97,,,,,1,0,1,0,1,29,85,30,,,,,,,,,,,,,,,,,,,,,,,814.3423915000167,None,814.3423915000167,None,813.8420518999919,None,f,0.9615314999828115,814.3423915000167,None,,,,,,,,,,,,,q,001,2021_Jul_10_1447,toilet,2021.1.3,99.91706880626961,
0,0,4,-4,1.0,,,,,1,0,1,0,1,30,86,10,,,,,,,,,,,,,,,,,,,,,,,816.303727200022,None,816.303727200022,None,815.8033922000322,None,f,0.8402208000188693,816.303727200022,None,,,,,,,,,,,,,q,001,2021_Jul_10_1447,toilet,2021.1.3,99.91706880626961,
180,180,4,-4,1.06,,,,,1,0,1,0,1,31,87,40,,,,,,,,,,,,,,,,,,,,,,,818.1450564999832,None,818.1450564999832,None,817.6446295999922,None,f,0.7432801999966614,818.1450564999832,None,,,,,,,,,,,,,q,001,2021_Jul_10_1447,toilet,2021.1.3,99.91706880626961,
0,0,-4,4,1.0,,,,,1,0,1,0,1,32,88,3,,,,,,,,,,,,,,,,,,,,,,,819.8961991000106,None,819.8961991000106,None,819.3959143999964,None,f,2.19170630001463,819.8961991000106,None,,,,,,,,,,,,,q,001,2021_Jul_10_1447,toilet,2021.1.3,99.91706880626961,
0,180,-4,4,1.03,,,,,1,0,1,0,1,33,89,18,,,,,,,,,,,,,,,,,,,,,,,823.0883270999766,None,823.0883270999766,None,822.5879918999854,None,j,0.5835781999630854,823.0883270999766,None,,,,,,,,,,,,,q,001,2021_Jul_10_1447,toilet,2021.1.3,99.91706880626961,
180,0,4,-4,1.0,,,,,1,0,1,0,1,34,90,52,,,,,,,,,,,,,,,,,,,,,,,824.6794004000258,None,824.6794004000258,None,824.1790599999949,None,f,1.776659799972549,824.6794004000258,None,,,,,,,,,,,,,q,001,2021_Jul_10_1447,toilet,2021.1.3,99.91706880626961,
180,0,-4,4,1.0,,,,,1,0,1,0,1,35,91,45,,,,,,,,,,,,,,,,,,,,,,,827.4713011999847,None,827.4713011999847,None,826.9710444000084,None,j,4.7607026000041515,827.4713011999847,None,,,,,,,,,,,,,q,001,2021_Jul_10_1447,toilet,2021.1.3,99.91706880626961,
0,180,-4,4,0.97,,,,,1,0,1,0,1,36,92,16,,,,,,,,,,,,,,,,,,,,,,,833.2453150000074,None,833.2453150000074,None,832.744876199984,None,f,3.9945666999556124,833.2453150000074,None,,,,,,,,,,,,,q,001,2021_Jul_10_1447,toilet,2021.1.3,99.91706880626961,
180,0,-4,4,1.06,,,,,1,0,1,0,1,37,93,47,,,,,,,,,,,,,,,,,,,,,,,838.2486226999899,None,838.2486226999899,None,837.7482681000256,None,j,0.575546900043264,838.2486226999899,None,,,,,,,,,,,,,q,001,2021_Jul_10_1447,toilet,2021.1.3,99.91706880626961,
0,0,-4,4,1.06,,,,,1,0,1,0,1,38,94,5,,,,,,,,,,,,,,,,,,,,,,,839.8496954999864,None,839.8496954999864,None,839.3493561000214,None,j,0.7021933000069112,839.8496954999864,None,,,,,,,,,,,,,q,001,2021_Jul_10_1447,toilet,2021.1.3,99.91706880626961,
180,180,-4,4,0.85,,,,,1,0,1,0,1,39,95,28,,,,,,,,,,,,,,,,,,,,,,,841.5609347000136,None,841.5609347000136,None,841.0605923000257,None,f,0.6550632999860682,841.5609347000136,None,,,,,,,,,,,,,q,001,2021_Jul_10_1447,toilet,2021.1.3,99.91706880626961,
180,180,4,-4,1.0,,,,,1,0,1,0,1,40,96,38,,,,,,,,,,,,,,,,,,,,,,,843.2319882999873,None,843.2319882999873,None,842.7316487000207,None,f,2.8079370000050403,843.2319882999873,None,,,,,,,,,,,,,q,001,2021_Jul_10_1447,toilet,2021.1.3,99.91706880626961,
0,0,4,-4,0.94,,,,,1,0,1,0,1,41,97,8,,,,,,,,,,,,,,,,,,,,,,,847.0445751000079,None,847.0445751000079,None,846.5442329000216,None,j,0.7394772000261582,847.0445751000079,None,,,,,,,,,,,,,q,001,2021_Jul_10_1447,toilet,2021.1.3,99.91706880626961,
0,180,4,-4,1.06,,,,,1,0,1,0,1,42,98,26,,,,,,,,,,,,,,,,,,,,,,,848.7957541000214,None,848.7957541000214,None,848.2955101000261,None,f,1.1481156999943778,848.7957541000214,None,,,,,,,,,,,,,q,001,2021_Jul_10_1447,toilet,2021.1.3,99.91706880626961,
180,0,-4,4,0.97,,,,,1,0,1,0,1,43,99,44,,,,,,,,,,,,,,,,,,,,,,,850.9472218999872,None,850.9472218999872,None,850.4468841999769,None,f,1.268656500033103,850.9472218999872,None,,,,,,,,,,,,,q,001,2021_Jul_10_1447,toilet,2021.1.3,99.91706880626961,
0,180,-4,4,0.85,,,,,1,0,1,0,1,44,100,14,,,,,,,,,,,,,,,,,,,,,,,853.2187622999772,None,853.2187622999772,None,852.7184271999868,None,f,0.7570661999634467,853.2187622999772,None,,,,,,,,,,,,,q,001,2021_Jul_10_1447,toilet,2021.1.3,99.91706880626961,
0,180,-4,4,0.94,,,,,1,0,1,0,1,45,101,15,,,,,,,,,,,,,,,,,,,,,,,854.9800452999771,None,854.9800452999771,None,854.4796221000142,None,f,1.2198853000300005,854.9800452999771,None,,,,,,,,,,,,,q,001,2021_Jul_10_1447,toilet,2021.1.3,99.91706880626961,
180,180,4,-4,1.03,,,,,1,0,1,0,1,46,102,39,,,,,,,,,,,,,,,,,,,,,,,857.2114626999828,None,857.2114626999828,None,856.7111628000275,None,f,1.1325458000064828,857.2114626999828,None,,,,,,,,,,,,,q,001,2021_Jul_10_1447,toilet,2021.1.3,99.91706880626961,
180,180,4,-4,1.15,,,,,1,0,1,0,1,47,103,41,,,,,,,,,,,,,,,,,,,,,,,859.3529239000054,None,859.3529239000054,None,858.8525824000244,None,f,0.6549561999854632,859.3529239000054,None,,,,,,,,,,,,,q,001,2021_Jul_10_1447,toilet,2021.1.3,99.91706880626961,
180,0,-4,4,1.03,,,,,1,0,1,0,1,48,104,46,,,,,,,,,,,,,,,,,,,,,,,861.0140500999987,None,861.0140500999987,None,860.5137149000075,None,j,2.64190139999846,861.0140500999987,None,,,,,,,,,,,,,q,001,2021_Jul_10_1447,toilet,2021.1.3,99.91706880626961,
180,180,-4,4,0.94,,,,,1,0,1,0,1,49,105,29,,,,,,,,,,,,,,,,,,,,,,,864.6665192000219,None,864.6665192000219,None,864.1661886000074,None,f,0.6372980999876745,864.6665192000219,None,,,,,,,,,,,,,q,001,2021_Jul_10_1447,toilet,2021.1.3,99.91706880626961,
0,180,-4,4,1.0,,,,,1,0,1,0,1,50,106,17,,,,,,,,,,,,,,,,,,,,,,,866.3076380999992,None,866.3076380999992,None,865.8073001999874,None,j,1.732331300037913,866.3076380999992,None,,,,,,,,,,,,,q,001,2021_Jul_10_1447,toilet,2021.1.3,99.91706880626961,
180,0,4,-4,1.06,,,,,1,0,1,0,1,51,107,54,,,,,,,,,,,,,,,,,,,,,,,869.0495001000236,None,869.0495001000236,None,868.5491417000303,None,f,0.9105507999775,869.0495001000236,None,,,,,,,,,,,,,q,001,2021_Jul_10_1447,toilet,2021.1.3,99.91706880626961,
180,180,4,-4,0.97,,,,,1,0,1,0,1,52,108,37,,,,,,,,,,,,,,,,,,,,,,,870.9708889999893,None,870.9708889999893,None,870.4705529999919,None,f,0.6209663000190631,870.9708889999893,None,,,,,,,,,,,,,q,001,2021_Jul_10_1447,toilet,2021.1.3,99.91706880626961,
180,0,-4,4,1.15,,,,,1,0,1,0,1,53,109,48,,,,,,,,,,,,,,,,,,,,,,,872.5919032000238,None,872.5919032000238,None,872.0915643000044,None,j,0.5999665999552235,872.5919032000238,None,,,,,,,,,,,,,q,001,2021_Jul_10_1447,toilet,2021.1.3,99.91706880626961,
180,180,-4,4,1.15,,,,,1,0,1,0,1,54,110,34,,,,,,,,,,,,,,,,,,,,,,,874.1929948999896,None,874.1929948999896,None,873.6926486000302,None,j,0.662975000042934,874.1929948999896,None,,,,,,,,,,,,,q,001,2021_Jul_10_1447,toilet,2021.1.3,99.91706880626961,
180,180,-4,4,1.06,,,,,1,0,1,0,1,55,111,33,,,,,,,,,,,,,,,,,,,,,,,875.8741341999848,None,875.8741341999848,None,875.3737872000202,None,j,0.5339967000181787,875.8741341999848,None,,,,,,,,,,,,,q,001,2021_Jul_10_1447,toilet,2021.1.3,99.91706880626961,
,,,,,,,,,1,0,1,0,,,,,,,,,,,,,,,,,,,,,,,,,,,,,,,,,,,,,876.434542700008,None,space,97.47735480003757,876.434542700008,None,,,,,,,q,001,2021_Jul_10_1447,toilet,2021.1.3,99.91706880626961,
0,180,-4,4,0.97,,,,,2,0,2,0,0,0,0,16,,,,,,,,,,,,,,,,,973.9306405999814,None,space,1.6932727000094019,973.9306405999814,None,976.6424700000207,None,976.6424700000207,None,976.1421635000152,None,f,0.981358899967745,976.6424700000207,None,,,,,,,,,,,,,q,001,2021_Jul_10_1447,toilet,2021.1.3,99.91706880626961,
180,180,-4,4,0.94,,,,,2,0,2,0,0,1,1,29,,,,,,,,,,,,,,,,,,,,,,,978.6338227000087,None,978.6338227000087,None,978.1334871000145,None,f,0.6862850000034086,978.6338227000087,None,,,,,,,,,,,,,q,001,2021_Jul_10_1447,toilet,2021.1.3,99.91706880626961,
0,0,-4,4,1.03,,,,,2,0,2,0,0,2,2,4,,,,,,,,,,,,,,,,,,,,,,,980.334979199979,None,980.334979199979,None,979.8347333000274,None,j,0.6808229999733157,980.334979199979,None,,,,,,,,,,,,,q,001,2021_Jul_10_1447,toilet,2021.1.3,99.91706880626961,
180,0,-4,4,1.15,,,,,2,0,2,0,0,3,3,48,,,,,,,,,,,,,,,,,,,,,,,982.0161601,None,982.0161601,None,981.515862900007,None,j,0.4877707999548875,982.0161601,None,,,,,,,,,,,,,q,001,2021_Jul_10_1447,toilet,2021.1.3,99.91706880626961,
0,0,-4,4,1.0,,,,,2,0,2,0,0,4,4,3,,,,,,,,,,,,,,,,,,,,,,,983.5071360000293,None,983.5071360000293,None,983.00679210003,None,f,0.5006835999665782,983.5071360000293,None,,,,,,,,,,,,,q,001,2021_Jul_10_1447,toilet,2021.1.3,99.91706880626961,
0,180,4,-4,1.0,,,,,2,0,2,0,0,5,5,24,,,,,,,,,,,,,,,,,,,,,,,985.0081547999871,None,985.0081547999871,None,984.5078060000087,None,f,1.0958096000249498,985.0081547999871,None,,,,,,,,,,,,,q,001,2021_Jul_10_1447,toilet,2021.1.3,99.91706880626961,
180,0,-4,4,1.06,,,,,2,0,2,0,0,6,6,47,,,,,,,,,,,,,,,,,,,,,,,987.1295959000126,None,987.1295959000126,None,986.6292458000244,None,j,0.5103001000243239,987.1295959000126,None,,,,,,,,,,,,,q,001,2021_Jul_10_1447,toilet,2021.1.3,99.91706880626961,
0,0,4,-4,1.06,,,,,2,0,2,0,0,7,7,12,,,,,,,,,,,,,,,,,,,,,,,988.6406892000232,None,988.6406892000232,None,988.1502842000336,None,f,0.5191928000422195,988.6406892000232,None,,,,,,,,,,,,,q,001,2021_Jul_10_1447,toilet,2021.1.3,99.91706880626961,
180,0,-4,4,0.97,,,,,2,0,2,0,0,8,8,44,,,,,,,,,,,,,,,,,,,,,,,990.1716486000223,None,990.1716486000223,None,989.6713168999995,None,f,0.55615979997674,990.1716486000223,None,,,,,,,,,,,,,q,001,2021_Jul_10_1447,toilet,2021.1.3,99.91706880626961,
0,0,4,-4,0.94,,,,,2,0,2,0,0,9,9,8,,,,,,,,,,,,,,,,,,,,,,,991.7327194000245,None,991.7327194000245,None,991.2323678000248,None,j,0.979196599975694,991.7327194000245,None,,,,,,,,,,,,,q,001,2021_Jul_10_1447,toilet,2021.1.3,99.91706880626961,
0,180,-4,4,0.85,,,,,2,0,2,0,0,10,10,14,,,,,,,,,,,,,,,,,,,,,,,993.7240586000262,None,993.7240586000262,None,993.2237224000273,None,f,0.5078462999663316,993.7240586000262,None,,,,,,,,,,,,,q,001,2021_Jul_10_1447,toilet,2021.1.3,99.91706880626961,
180,0,4,-4,0.97,,,,,2,0,2,0,0,11,11,51,,,,,,,,,,,,,,,,,,,,,,,995.2450910999905,None,995.2450910999905,None,994.7448342000134,None,j,0.5868259000126272,995.2450910999905,None,,,,,,,,,,,,,q,001,2021_Jul_10_1447,toilet,2021.1.3,99.91706880626961,
0,0,4,-4,0.85,,,,,2,0,2,0,0,12,12,7,,,,,,,,,,,,,,,,,,,,,,,996.8462643999956,None,996.8462643999956,None,996.3458458000096,None,j,0.6016317999456078,996.8462643999956,None,,,,,,,,,,,,,q,001,2021_Jul_10_1447,toilet,2021.1.3,99.91706880626961,
180,0,-4,4,0.85,,,,,2,0,2,0,0,13,13,42,,,,,,,,,,,,,,,,,,,,,,,998.4472589999787,None,998.4472589999787,None,997.9469167999923,None,f,0.5045654999557883,998.4472589999787,None,,,,,,,,,,,,,q,001,2021_Jul_10_1447,toilet,2021.1.3,99.91706880626961,
0,180,-4,4,1.15,,,,,2,0,2,0,0,14,14,20,,,,,,,,,,,,,,,,,,,,,,,999.9582856000052,None,999.9582856000052,None,999.4579583000159,None,j,0.49772520002443343,999.9582856000052,None,,,,,,,,,,,,,q,001,2021_Jul_10_1447,toilet,2021.1.3,99.91706880626961,
180,180,4,-4,1.03,,,,,2,0,2,0,0,15,15,39,,,,,,,,,,,,,,,,,,,,,,,1001.4693317000056,None,1001.4693317000056,None,1000.9689967000159,None,f,0.7626638999790885,1001.4693317000056,None,,,,,,,,,,,,,q,001,2021_Jul_10_1447,toilet,2021.1.3,99.91706880626961,
0,180,4,-4,1.15,,,,,2,0,2,0,0,16,16,27,,,,,,,,,,,,,,,,,,,,,,,1003.2505235000281,None,1003.2505235000281,None,1002.7502550000208,None,f,0.5014664999907836,1003.2505235000281,None,,,,,,,,,,,,,q,001,2021_Jul_10_1447,toilet,2021.1.3,99.91706880626961,
180,180,4,-4,0.94,,,,,2,0,2,0,0,17,17,36,,,,,,,,,,,,,,,,,,,,,,,1004.7615466000279,None,1004.7615466000279,None,1004.261242299981,None,j,0.5102719999849796,1004.7615466000279,None,,,,,,,,,,,,,q,001,2021_Jul_10_1447,toilet,2021.1.3,99.91706880626961,
0,0,-4,4,1.15,,,,,2,0,2,0,0,18,18,6,,,,,,,,,,,,,,,,,,,,,,,1006.272577100026,None,1006.272577100026,None,1005.772248800029,None,j,0.5673863000120036,1006.272577100026,None,,,,,,,,,,,,,q,001,2021_Jul_10_1447,toilet,2021.1.3,99.91706880626961,
0,0,-4,4,0.85,,,,,2,0,2,0,0,19,19,0,,,,,,,,,,,,,,,,,,,,,,,1007.8636496000108,None,1007.8636496000108,None,1007.3633079000283,None,f,0.5122595999855548,1007.8636496000108,None,,,,,,,,,,,,,q,001,2021_Jul_10_1447,toilet,2021.1.3,99.91706880626961,
180,180,-4,4,1.0,,,,,2,0,2,0,0,20,20,31,,,,,,,,,,,,,,,,,,,,,,,1009.3946838999982,None,1009.3946838999982,None,1008.8943485000054,None,j,3.557196000008844,1009.3946838999982,None,,,,,,,,,,,,,q,001,2021_Jul_10_1447,toilet,2021.1.3,99.91706880626961,
0,180,4,-4,1.06,,,,,2,0,2,0,0,21,21,26,,,,,,,,,,,,,,,,,,,,,,,1013.9577843000297,None,1013.9577843000297,None,1013.4574453000096,None,f,0.5780093999928795,1013.9577843000297,None,,,,,,,,,,,,,q,001,2021_Jul_10_1447,toilet,2021.1.3,99.91706880626961,
0,180,-4,4,1.0,,,,,2,0,2,0,0,22,22,17,,,,,,,,,,,,,,,,,,,,,,,1015.5388580000144,None,1015.5388580000144,None,1015.0385573999956,None,j,0.6131880999892019,1015.5388580000144,None,,,,,,,,,,,,,q,001,2021_Jul_10_1447,toilet,2021.1.3,99.91706880626961,
180,180,-4,4,1.03,,,,,2,0,2,0,0,23,23,32,,,,,,,,,,,,,,,,,,,,,,,1017.1700529999798,None,1017.1700529999798,None,1016.6696207000059,None,f,2.789730300020892,1017.1700529999798,None,,,,,,,,,,,,,q,001,2021_Jul_10_1447,toilet,2021.1.3,99.91706880626961,
180,0,4,-4,1.0,,,,,2,0,2,0,0,24,24,52,,,,,,,,,,,,,,,,,,,,,,,1020.9625319000334,None,1020.9625319000334,None,1020.4621925000101,None,f,1.2854213999817148,1020.9625319000334,None,,,,,,,,,,,,,q,001,2021_Jul_10_1447,toilet,2021.1.3,99.91706880626961,
180,180,4,-4,1.06,,,,,2,0,2,0,0,25,25,40,,,,,,,,,,,,,,,,,,,,,,,1023.2640965000028,None,1023.2640965000028,None,1022.7637581999879,None,f,1.655976100009866,1023.2640965000028,None,,,,,,,,,,,,,q,001,2021_Jul_10_1447,toilet,2021.1.3,99.91706880626961,
180,0,4,-4,0.94,,,,,2,0,2,0,0,26,26,50,,,,,,,,,,,,,,,,,,,,,,,1025.9359137000283,None,1025.9359137000283,None,1025.4356508000055,None,j,1.991865499992855,1025.9359137000283,None,,,,,,,,,,,,,q,001,2021_Jul_10_1447,toilet,2021.1.3,99.91706880626961,
180,0,4,-4,1.03,,,,,2,0,2,0,0,27,27,53,,,,,,,,,,,,,,,,,,,,,,,1028.9279321000213,None,1028.9279321000213,None,1028.4275968000293,None,f,0.8399574999930337,1028.9279321000213,None,,,,,,,,,,,,,q,001,2021_Jul_10_1447,toilet,2021.1.3,99.91706880626961,
0,180,4,-4,1.03,,,,,2,0,2,0,0,28,28,25,,,,,,,,,,,,,,,,,,,,,,,1030.7791840999853,None,1030.7791840999853,None,1030.2788549999823,None,f,0.6847501999582164,1030.7791840999853,None,,,,,,,,,,,,,q,001,2021_Jul_10_1447,toilet,2021.1.3,99.91706880626961,
180,0,-4,4,1.0,,,,,2,0,2,0,0,29,29,45,,,,,,,,,,,,,,,,,,,,,,,1032.480436599988,None,1032.480436599988,None,1031.9800938999979,None,j,0.63152659998741,1032.480436599988,None,,,,,,,,,,,,,q,001,2021_Jul_10_1447,toilet,2021.1.3,99.91706880626961,
180,180,4,-4,1.0,,,,,2,0,2,0,0,30,30,38,,,,,,,,,,,,,,,,,,,,,,,1034.121464100026,None,1034.121464100026,None,1033.621153199987,None,f,0.8943800000124611,1034.121464100026,None,,,,,,,,,,,,,q,001,2021_Jul_10_1447,toilet,2021.1.3,99.91706880626961,
180,180,-4,4,0.97,,,,,2,0,2,0,0,31,31,30,,,,,,,,,,,,,,,,,,,,,,,1036.0227448000223,None,1036.0227448000223,None,1035.5224081000197,None,f,0.5771222999901511,1036.0227448000223,None,,,,,,,,,,,,,q,001,2021_Jul_10_1447,toilet,2021.1.3,99.91706880626961,
0,180,-4,4,1.06,,,,,2,0,2,0,0,32,32,19,,,,,,,,,,,,,,,,,,,,,,,1037.6038316999911,None,1037.6038316999911,None,1037.1034771000268,None,j,0.8520427000476047,1037.6038316999911,None,,,,,,,,,,,,,q,001,2021_Jul_10_1447,toilet,2021.1.3,99.91706880626961,
0,0,-4,4,1.06,,,,,2,0,2,0,0,33,33,5,,,,,,,,,,,,,,,,,,,,,,,1039.4551563999848,None,1039.4551563999848,None,1038.9547440999886,None,j,1.4647933000233024,1039.4551563999848,None,,,,,,,,,,,,,q,001,2021_Jul_10_1447,toilet,2021.1.3,99.91706880626961,
180,0,4,-4,1.15,,,,,2,0,2,0,0,34,34,55,,,,,,,,,,,,,,,,,,,,,,,1041.9367594000068,None,1041.9367594000068,None,1041.4364172000205,None,f,0.4870103999855928,1041.9367594000068,None,,,,,,,,,,,,,q,001,2021_Jul_10_1447,toilet,2021.1.3,99.91706880626961,
180,0,4,-4,1.06,,,,,2,0,2,0,0,35,35,54,,,,,,,,,,,,,,,,,,,,,,,1043.4277662999812,None,1043.4277662999812,None,1042.927425700007,None,f,0.8042803999851458,1043.4277662999812,None,,,,,,,,,,,,,q,001,2021_Jul_10_1447,toilet,2021.1.3,99.91706880626961,
0,180,4,-4,0.97,,,,,2,0,2,0,0,36,36,23,,,,,,,,,,,,,,,,,,,,,,,1045.249005199992,None,1045.249005199992,None,1044.7486618999974,None,j,0.5988547000451945,1045.249005199992,None,,,,,,,,,,,,,q,001,2021_Jul_10_1447,toilet,2021.1.3,99.91706880626961,
0,0,-4,4,0.94,,,,,2,0,2,0,0,37,37,1,,,,,,,,,,,,,,,,,,,,,,,1046.8601850999985,None,1046.8601850999985,None,1046.3597548999824,None,f,0.6357410000055097,1046.8601850999985,None,,,,,,,,,,,,,q,001,2021_Jul_10_1447,toilet,2021.1.3,99.91706880626961,
180,0,4,-4,0.85,,,,,2,0,2,0,0,38,38,49,,,,,,,,,,,,,,,,,,,,,,,1048.5112353999866,None,1048.5112353999866,None,1048.0109582000296,None,j,0.5045903000282124,1048.5112353999866,None,,,,,,,,,,,,,q,001,2021_Jul_10_1447,toilet,2021.1.3,99.91706880626961,
180,180,4,-4,1.15,,,,,2,0,2,0,0,39,39,41,,,,,,,,,,,,,,,,,,,,,,,1050.022241800034,None,1050.022241800034,None,1049.5219025000115,None,f,0.5295584999839775,1050.022241800034,None,,,,,,,,,,,,,q,001,2021_Jul_10_1447,toilet,2021.1.3,99.91706880626961,
180,180,4,-4,0.97,,,,,2,0,2,0,0,40,40,37,,,,,,,,,,,,,,,,,,,,,,,1051.5532780999783,None,1051.5532780999783,None,1051.0529417999787,None,j,0.7745007000048645,1051.5532780999783,None,,,,,,,,,,,,,q,001,2021_Jul_10_1447,toilet,2021.1.3,99.91706880626961,
180,180,-4,4,1.15,,,,,2,0,2,0,0,41,41,34,,,,,,,,,,,,,,,,,,,,,,,1053.3344875000184,None,1053.3344875000184,None,1052.8341558999964,None,j,0.5613840000005439,1053.3344875000184,None,,,,,,,,,,,,,q,001,2021_Jul_10_1447,toilet,2021.1.3,99.91706880626961,
180,180,-4,4,1.06,,,,,2,0,2,0,0,42,42,33,,,,,,,,,,,,,,,,,,,,,,,1054.9055654000258,None,1054.9055654000258,None,1054.4052969000186,None,j,0.6863500000326894,1054.9055654000258,None,,,,,,,,,,,,,q,001,2021_Jul_10_1447,toilet,2021.1.3,99.91706880626961,
180,180,4,-4,0.85,,,,,2,0,2,0,0,43,43,35,,,,,,,,,,,,,,,,,,,,,,,1056.6067113000317,None,1056.6067113000317,None,1056.1063696999918,None,j,0.761224299960304,1056.6067113000317,None,,,,,,,,,,,,,q,001,2021_Jul_10_1447,toilet,2021.1.3,99.91706880626961,
180,180,-4,4,0.85,,,,,2,0,2,0,0,44,44,28,,,,,,,,,,,,,,,,,,,,,,,1058.3679001000128,None,1058.3679001000128,None,1057.8675591999781,None,f,0.488020199991297,1058.3679001000128,None,,,,,,,,,,,,,q,001,2021_Jul_10_1447,toilet,2021.1.3,99.91706880626961,
0,0,4,-4,1.15,,,,,2,0,2,0,0,45,45,13,,,,,,,,,,,,,,,,,,,,,,,1059.868917100015,None,1059.868917100015,None,1059.368584299984,None,f,0.5551532999961637,1059.868917100015,None,,,,,,,,,,,,,q,001,2021_Jul_10_1447,toilet,2021.1.3,99.91706880626961,
180,0,-4,4,1.03,,,,,2,0,2,0,0,46,46,46,,,,,,,,,,,,,,,,,,,,,,,1061.4399899999844,None,1061.4399899999844,None,1060.9396615999867,None,j,1.2398784000542946,1061.4399899999844,None,,,,,,,,,,,,,q,001,2021_Jul_10_1447,toilet,2021.1.3,99.91706880626961,
0,180,4,-4,0.94,,,,,2,0,2,0,0,47,47,22,,,,,,,,,,,,,,,,,,,,,,,1063.6915123999934,None,1063.6915123999934,None,1063.1911707000108,None,j,0.7803417000104673,1063.6915123999934,None,,,,,,,,,,,,,q,001,2021_Jul_10_1447,toilet,2021.1.3,99.91706880626961,
0,180,-4,4,1.03,,,,,2,0,2,0,0,48,48,18,,,,,,,,,,,,,,,,,,,,,,,1065.4727219999768,None,1065.4727219999768,None,1064.9723793999874,None,j,0.5831322000012733,1065.4727219999768,None,,,,,,,,,,,,,q,001,2021_Jul_10_1447,toilet,2021.1.3,99.91706880626961,
0,0,-4,4,0.97,,,,,2,0,2,0,0,49,49,2,,,,,,,,,,,,,,,,,,,,,,,1067.0738040999859,None,1067.0738040999859,None,1066.573470800009,None,f,0.5820622000028379,1067.0738040999859,None,,,,,,,,,,,,,q,001,2021_Jul_10_1447,toilet,2021.1.3,99.91706880626961,
0,180,4,-4,0.85,,,,,2,0,2,0,0,50,50,21,,,,,,,,,,,,,,,,,,,,,,,1068.6649700999842,None,1068.6649700999842,None,1068.1645461000153,None,j,0.5908593999920413,1068.6649700999842,None,,,,,,,,,,,,,q,001,2021_Jul_10_1447,toilet,2021.1.3,99.91706880626961,
0,180,-4,4,0.94,,,,,2,0,2,0,0,51,51,15,,,,,,,,,,,,,,,,,,,,,,,1070.2660089000128,None,1070.2660089000128,None,1069.7657052000286,None,f,0.5738560000318103,1070.2660089000128,None,,,,,,,,,,,,,q,001,2021_Jul_10_1447,toilet,2021.1.3,99.91706880626961,
0,0,4,-4,1.03,,,,,2,0,2,0,0,52,52,11,,,,,,,,,,,,,,,,,,,,,,,1071.84704339999,None,1071.84704339999,None,1071.346702300012,None,f,0.6407525000395253,1071.84704339999,None,,,,,,,,,,,,,q,001,2021_Jul_10_1447,toilet,2021.1.3,99.91706880626961,
0,0,4,-4,0.97,,,,,2,0,2,0,0,53,53,9,,,,,,,,,,,,,,,,,,,,,,,1073.4881541000213,None,1073.4881541000213,None,1072.9878187000286,None,f,1.0157581999665126,1073.4881541000213,None,,,,,,,,,,,,,q,001,2021_Jul_10_1447,toilet,2021.1.3,99.91706880626961,
0,0,4,-4,1.0,,,,,2,0,2,0,0,54,54,10,,,,,,,,,,,,,,,,,,,,,,,1075.5195560000138,None,1075.5195560000138,None,1075.0191999999806,None,f,0.7923186999978498,1075.5195560000138,None,,,,,,,,,,,,,q,001,2021_Jul_10_1447,toilet,2021.1.3,99.91706880626961,
180,0,-4,4,0.94,,,,,2,0,2,0,0,55,55,43,,,,,,,,,,,,,,,,,,,,,,,1077.3208452999825,None,1077.3208452999825,None,1076.820497800014,None,f,0.5591262999805622,1077.3208452999825,None,,,,,,,,,,,,,q,001,2021_Jul_10_1447,toilet,2021.1.3,99.91706880626961,
0,0,4,-4,1.0,,,,,2,0,2,0,1,0,56,10,,,,,,,,,,,,,,,,,,,,,,,1078.8918320999946,None,1078.8918320999946,None,1078.3914820000064,None,f,5.004011300043203,1078.8918320999946,None,,,,,,,,,,,,,q,001,2021_Jul_10_1447,toilet,2021.1.3,99.91706880626961,
0,180,4,-4,1.15,,,,,2,0,2,0,1,1,57,27,,,,,,,,,,,,,,,,,,,,,,,1084.9058951000334,None,1084.9058951000334,None,1084.405643999984,None,f,0.574091199960094,1084.9058951000334,None,,,,,,,,,,,,,q,001,2021_Jul_10_1447,toilet,2021.1.3,99.91706880626961,
0,0,-4,4,0.97,,,,,2,0,2,0,1,2,58,2,,,,,,,,,,,,,,,,,,,,,,,1086.48697800003,None,1086.48697800003,None,1085.9866322000162,None,j,1.5367764999973588,1086.48697800003,None,,,,,,,,,,,,,q,001,2021_Jul_10_1447,toilet,2021.1.3,99.91706880626961,
0,180,4,-4,1.06,,,,,2,0,2,0,1,3,59,26,,,,,,,,,,,,,,,,,,,,,,,1089.0286937000346,None,1089.0286937000346,None,1088.5283614000073,None,f,1.0432597000035457,1089.0286937000346,None,,,,,,,,,,,,,q,001,2021_Jul_10_1447,toilet,2021.1.3,99.91706880626961,
0,0,-4,4,1.06,,,,,2,0,2,0,1,4,60,5,,,,,,,,,,,,,,,,,,,,,,,1091.090170099982,None,1091.090170099982,None,1090.5897543000174,None,j,0.6776963999727741,1091.090170099982,None,,,,,,,,,,,,,q,001,2021_Jul_10_1447,toilet,2021.1.3,99.91706880626961,
180,180,4,-4,0.85,,,,,2,0,2,0,1,5,61,35,,,,,,,,,,,,,,,,,,,,,,,1092.7813107999973,None,1092.7813107999973,None,1092.2809972999967,None,j,0.5544375999597833,1092.7813107999973,None,,,,,,,,,,,,,q,001,2021_Jul_10_1447,toilet,2021.1.3,99.91706880626961,
180,180,4,-4,1.0,,,,,2,0,2,0,1,6,62,38,,,,,,,,,,,,,,,,,,,,,,,1094.3423011000268,None,1094.3423011000268,None,1093.841962800012,None,j,0.8015934999566525,1094.3423011000268,None,,,,,,,,,,,,,q,001,2021_Jul_10_1447,toilet,2021.1.3,99.91706880626961,
180,180,4,-4,1.06,,,,,2,0,2,0,1,7,63,40,,,,,,,,,,,,,,,,,,,,,,,1096.1535317000234,None,1096.1535317000234,None,1095.653189899982,None,f,0.5902216999675147,1096.1535317000234,None,,,,,,,,,,,,,q,001,2021_Jul_10_1447,toilet,2021.1.3,99.91706880626961,
180,180,-4,4,1.06,,,,,2,0,2,0,1,8,64,33,,,,,,,,,,,,,,,,,,,,,,,1097.7446037000045,None,1097.7446037000045,None,1097.2442981000058,None,j,0.5671537999878637,1097.7446037000045,None,,,,,,,,,,,,,q,001,2021_Jul_10_1447,toilet,2021.1.3,99.91706880626961,
180,180,4,-4,0.97,,,,,2,0,2,0,1,9,65,37,,,,,,,,,,,,,,,,,,,,,,,1099.3157474999898,None,1099.3157474999898,None,1098.815418699989,None,j,1.9560008000116795,1099.3157474999898,None,,,,,,,,,,,,,q,001,2021_Jul_10_1447,toilet,2021.1.3,99.91706880626961,
180,180,-4,4,0.85,,,,,2,0,2,0,1,10,66,28,,,,,,,,,,,,,,,,,,,,,,,1102.2776740000118,None,1102.2776740000118,None,1101.7773727999884,None,f,0.6101592999766581,1102.2776740000118,None,,,,,,,,,,,,,q,001,2021_Jul_10_1447,toilet,2021.1.3,99.91706880626961,
180,0,4,-4,0.97,,,,,2,0,2,0,1,11,67,51,,,,,,,,,,,,,,,,,,,,,,,1103.898783200013,None,1103.898783200013,None,1103.3984689000063,None,j,0.6052071999874897,1103.898783200013,None,,,,,,,,,,,,,q,001,2021_Jul_10_1447,toilet,2021.1.3,99.91706880626961,
0,180,-4,4,1.0,,,,,2,0,2,0,1,12,68,17,,,,,,,,,,,,,,,,,,,,,,,1105.5199854000239,None,1105.5199854000239,None,1105.0195345000247,None,f,2.5838186999899335,1105.5199854000239,None,,,,,,,,,,,,,q,001,2021_Jul_10_1447,toilet,2021.1.3,99.91706880626961,
0,0,4,-4,1.06,,,,,2,0,2,0,1,13,69,12,,,,,,,,,,,,,,,,,,,,,,,1109.1123191000079,None,1109.1123191000079,None,1108.611979999987,None,f,0.7035855000140145,1109.1123191000079,None,,,,,,,,,,,,,q,001,2021_Jul_10_1447,toilet,2021.1.3,99.91706880626961,
0,0,4,-4,0.97,,,,,2,0,2,0,1,14,70,9,,,,,,,,,,,,,,,,,,,,,,,1110.8234778000042,None,1110.8234778000042,None,1110.3231421000091,None,j,0.6565262000076473,1110.8234778000042,None,,,,,,,,,,,,,q,001,2021_Jul_10_1447,toilet,2021.1.3,99.91706880626961,
180,0,-4,4,1.15,,,,,2,0,2,0,1,15,71,48,,,,,,,,,,,,,,,,,,,,,,,1112.4946141000255,None,1112.4946141000255,None,1111.9942763000145,None,j,0.617216799990274,1112.4946141000255,None,,,,,,,,,,,,,q,001,2021_Jul_10_1447,toilet,2021.1.3,99.91706880626961,
0,180,-4,4,1.03,,,,,2,0,2,0,1,16,72,18,,,,,,,,,,,,,,,,,,,,,,,1114.1157931000344,None,1114.1157931000344,None,1113.6154521999997,None,j,1.5880277000251226,1114.1157931000344,None,,,,,,,,,,,,,q,001,2021_Jul_10_1447,toilet,2021.1.3,99.91706880626961,
180,0,-4,4,1.03,,,,,2,0,2,0,1,17,73,46,,,,,,,,,,,,,,,,,,,,,,,1116.707465399988,None,1116.707465399988,None,1116.2071328000166,None,j,0.6282763000344858,1116.707465399988,None,,,,,,,,,,,,,q,001,2021_Jul_10_1447,toilet,2021.1.3,99.91706880626961,
0,0,-4,4,1.15,,,,,2,0,2,0,1,18,74,6,,,,,,,,,,,,,,,,,,,,,,,1118.3485854000319,None,1118.3485854000319,None,1117.8482446999988,None,j,0.6192491999827325,1118.3485854000319,None,,,,,,,,,,,,,q,001,2021_Jul_10_1447,toilet,2021.1.3,99.91706880626961,
0,0,4,-4,0.85,,,,,2,0,2,0,1,19,75,7,,,,,,,,,,,,,,,,,,,,,,,1119.979688099993,None,1119.979688099993,None,1119.4793469000142,None,j,0.6680769000086002,1119.979688099993,None,,,,,,,,,,,,,q,001,2021_Jul_10_1447,toilet,2021.1.3,99.91706880626961,
0,0,-4,4,1.0,,,,,2,0,2,0,1,20,76,3,,,,,,,,,,,,,,,,,,,,,,,1121.6609214000055,None,1121.6609214000055,None,1121.160563100013,None,f,0.5548613999853842,1121.6609214000055,None,,,,,,,,,,,,,q,001,2021_Jul_10_1447,toilet,2021.1.3,99.91706880626961,
0,180,4,-4,0.85,,,,,2,0,2,0,1,21,77,21,,,,,,,,,,,,,,,,,,,,,,,1123.2218861000147,None,1123.2218861000147,None,1122.721545599983,None,j,0.6098620999837294,1123.2218861000147,None,,,,,,,,,,,,,q,001,2021_Jul_10_1447,toilet,2021.1.3,99.91706880626961,
180,0,-4,4,0.97,,,,,2,0,2,0,1,22,78,44,,,,,,,,,,,,,,,,,,,,,,,1124.8329774999875,None,1124.8329774999875,None,1124.3326411999878,None,f,0.6149272000184283,1124.8329774999875,None,,,,,,,,,,,,,q,001,2021_Jul_10_1447,toilet,2021.1.3,99.91706880626961,
180,0,4,-4,1.03,,,,,2,0,2,0,1,23,79,53,,,,,,,,,,,,,,,,,,,,,,,1126.464099899982,None,1126.464099899982,None,1125.9637471000315,None,j,3.191646999970544,1126.464099899982,None,,,,,,,,,,,,,q,001,2021_Jul_10_1447,toilet,2021.1.3,99.91706880626961,
180,180,-4,4,1.15,,,,,2,0,2,0,1,24,80,34,,,,,,,,,,,,,,,,,,,,,,,1130.6569228000008,None,1130.6569228000008,None,1130.1565854999935,None,j,0.5987850000383332,1130.6569228000008,None,,,,,,,,,,,,,q,001,2021_Jul_10_1447,toilet,2021.1.3,99.91706880626961,
0,0,4,-4,0.94,,,,,2,0,2,0,1,25,81,8,,,,,,,,,,,,,,,,,,,,,,,1132.2580158999772,None,1132.2580158999772,None,1131.7576773000183,None,j,1.2058759999927133,1132.2580158999772,None,,,,,,,,,,,,,q,001,2021_Jul_10_1447,toilet,2021.1.3,99.91706880626961,
180,180,-4,4,0.94,,,,,2,0,2,0,1,26,82,29,,,,,,,,,,,,,,,,,,,,,,,1134.4795568999834,None,1134.4795568999834,None,1133.9791816999787,None,f,0.6003760999883525,1134.4795568999834,None,,,,,,,,,,,,,q,001,2021_Jul_10_1447,toilet,2021.1.3,99.91706880626961,
180,0,-4,4,0.94,,,,,2,0,2,0,1,27,83,43,,,,,,,,,,,,,,,,,,,,,,,1136.0907045999775,None,1136.0907045999775,None,1135.5903759999783,None,f,0.605172700015828,1136.0907045999775,None,,,,,,,,,,,,,q,001,2021_Jul_10_1447,toilet,2021.1.3,99.91706880626961,
0,180,-4,4,0.97,,,,,2,0,2,0,1,28,84,16,,,,,,,,,,,,,,,,,,,,,,,1137.7117096000002,None,1137.7117096000002,None,1137.2113768000272,None,j,0.6480805000173859,1137.7117096000002,None,,,,,,,,,,,,,q,001,2021_Jul_10_1447,toilet,2021.1.3,99.91706880626961,
180,0,4,-4,1.15,,,,,2,0,2,0,1,29,85,55,,,,,,,,,,,,,,,,,,,,,,,1139.362838800007,None,1139.362838800007,None,1138.8624932999955,None,f,0.6448943000286818,1139.362838800007,None,,,,,,,,,,,,,q,001,2021_Jul_10_1447,toilet,2021.1.3,99.91706880626961,
180,0,-4,4,1.0,,,,,2,0,2,0,1,30,86,45,,,,,,,,,,,,,,,,,,,,,,,1141.0139440000057,None,1141.0139440000057,None,1140.5136114000343,None,f,2.737868600001093,1141.0139440000057,None,,,,,,,,,,,,,q,001,2021_Jul_10_1447,toilet,2021.1.3,99.91706880626961,
180,0,4,-4,0.85,,,,,2,0,2,0,1,31,87,49,,,,,,,,,,,,,,,,,,,,,,,1144.756486999977,None,1144.756486999977,None,1144.2561722000246,None,j,0.483248199976515,1144.756486999977,None,,,,,,,,,,,,,q,001,2021_Jul_10_1447,toilet,2021.1.3,99.91706880626961,
0,0,-4,4,1.03,,,,,2,0,2,0,1,32,88,4,,,,,,,,,,,,,,,,,,,,,,,1146.2474988999893,None,1146.2474988999893,None,1145.7471660000156,None,f,0.6242400000337511,1146.2474988999893,None,,,,,,,,,,,,,q,001,2021_Jul_10_1447,toilet,2021.1.3,99.91706880626961,
180,0,-4,4,1.06,,,,,2,0,2,0,1,33,89,47,,,,,,,,,,,,,,,,,,,,,,,1147.8886091000168,None,1147.8886091000168,None,1147.388269899995,None,f,1.9111549999797717,1147.8886091000168,None,,,,,,,,,,,,,q,001,2021_Jul_10_1447,toilet,2021.1.3,99.91706880626961,
0,180,-4,4,1.15,,,,,2,0,2,0,1,34,90,20,,,,,,,,,,,,,,,,,,,,,,,1150.8006707000313,None,1150.8006707000313,None,1150.3003341000294,None,j,0.5352038000128232,1150.8006707000313,None,,,,,,,,,,,,,q,001,2021_Jul_10_1447,toilet,2021.1.3,99.91706880626961,
180,180,-4,4,1.0,,,,,2,0,2,0,1,35,91,31,,,,,,,,,,,,,,,,,,,,,,,1152.3516472000047,None,1152.3516472000047,None,1151.8513019999955,None,f,0.8561094999895431,1152.3516472000047,None,,,,,,,,,,,,,q,001,2021_Jul_10_1447,toilet,2021.1.3,99.91706880626961,
0,180,-4,4,0.85,,,,,2,0,2,0,1,36,92,14,,,,,,,,,,,,,,,,,,,,,,,1154.21290709998,None,1154.21290709998,None,1153.7125674000126,None,f,0.547034099989105,1154.21290709998,None,,,,,,,,,,,,,q,001,2021_Jul_10_1447,toilet,2021.1.3,99.91706880626961,
0,180,4,-4,1.03,,,,,2,0,2,0,1,37,93,25,,,,,,,,,,,,,,,,,,,,,,,1155.7739691000315,None,1155.7739691000315,None,1155.2736316000228,None,f,1.4018118999665603,1155.7739691000315,None,,,,,,,,,,,,,q,001,2021_Jul_10_1447,toilet,2021.1.3,99.91706880626961,
180,180,4,-4,1.15,,,,,2,0,2,0,1,38,94,41,,,,,,,,,,,,,,,,,,,,,,,1158.1756823000032,None,1158.1756823000032,None,1157.6753399000154,None,f,0.7121675999951549,1158.1756823000032,None,,,,,,,,,,,,,q,001,2021_Jul_10_1447,toilet,2021.1.3,99.91706880626961,
180,180,-4,4,1.03,,,,,2,0,2,0,1,39,95,32,,,,,,,,,,,,,,,,,,,,,,,1159.8967666000244,None,1159.8967666000244,None,1159.3964218000183,None,j,0.6390414999914356,1159.8967666000244,None,,,,,,,,,,,,,q,001,2021_Jul_10_1447,toilet,2021.1.3,99.91706880626961,
0,180,-4,4,0.94,,,,,2,0,2,0,1,40,96,15,,,,,,,,,,,,,,,,,,,,,,,1161.53789159999,None,1161.53789159999,None,1161.0375349000096,None,f,0.5979991999920458,1161.53789159999,None,,,,,,,,,,,,,q,001,2021_Jul_10_1447,toilet,2021.1.3,99.91706880626961,
0,0,4,-4,1.15,,,,,2,0,2,0,1,41,97,13,,,,,,,,,,,,,,,,,,,,,,,1163.1489691000315,None,1163.1489691000315,None,1162.648654700024,None,f,0.522954199986998,1163.1489691000315,None,,,,,,,,,,,,,q,001,2021_Jul_10_1447,toilet,2021.1.3,99.91706880626961,
180,0,-4,4,0.85,,,,,2,0,2,0,1,42,98,42,,,,,,,,,,,,,,,,,,,,,,,1164.690013799991,None,1164.690013799991,None,1164.1897076999885,None,f,0.566001099999994,1164.690013799991,None,,,,,,,,,,,,,q,001,2021_Jul_10_1447,toilet,2021.1.3,99.91706880626961,
180,180,4,-4,0.94,,,,,2,0,2,0,1,43,99,36,,,,,,,,,,,,,,,,,,,,,,,1166.2711724999826,None,1166.2711724999826,None,1165.7707469000015,None,j,0.5045613999827765,1166.2711724999826,None,,,,,,,,,,,,,q,001,2021_Jul_10_1447,toilet,2021.1.3,99.91706880626961,
0,180,-4,4,1.06,,,,,2,0,2,0,1,44,100,19,,,,,,,,,,,,,,,,,,,,,,,1167.7821083000163,None,1167.7821083000163,None,1167.281770200003,None,j,0.561638800019864,1167.7821083000163,None,,,,,,,,,,,,,q,001,2021_Jul_10_1447,toilet,2021.1.3,99.91706880626961,
0,180,4,-4,1.0,,,,,2,0,2,0,1,45,101,24,,,,,,,,,,,,,,,,,,,,,,,1169.3431707000127,None,1169.3431707000127,None,1168.8428275000188,None,f,2.2647299999953248,1169.3431707000127,None,,,,,,,,,,,,,q,001,2021_Jul_10_1447,toilet,2021.1.3,99.91706880626961,
180,0,4,-4,1.0,,,,,2,0,2,0,1,46,102,52,,,,,,,,,,,,,,,,,,,,,,,1172.625400000019,None,1172.625400000019,None,1172.125151299988,None,f,1.9263166000018828,1172.625400000019,None,,,,,,,,,,,,,q,001,2021_Jul_10_1447,toilet,2021.1.3,99.91706880626961,
0,0,-4,4,0.85,,,,,2,0,2,0,1,47,103,0,,,,,,,,,,,,,,,,,,,,,,,1175.5573811000213,None,1175.5573811000213,None,1175.057042600005,None,f,0.6103508999804035,1175.5573811000213,None,,,,,,,,,,,,,q,001,2021_Jul_10_1447,toilet,2021.1.3,99.91706880626961,
180,180,-4,4,0.97,,,,,2,0,2,0,1,48,104,30,,,,,,,,,,,,,,,,,,,,,,,1177.1684749000124,None,1177.1684749000124,None,1176.6681662999908,None,f,1.8633179999887943,1177.1684749000124,None,,,,,,,,,,,,,q,001,2021_Jul_10_1447,toilet,2021.1.3,99.91706880626961,
180,180,4,-4,1.03,,,,,2,0,2,0,1,49,105,39,,,,,,,,,,,,,,,,,,,,,,,1180.0405224999995,None,1180.0405224999995,None,1179.5401706999983,None,j,1.9831872999784537,1180.0405224999995,None,,,,,,,,,,,,,q,001,2021_Jul_10_1447,toilet,2021.1.3,99.91706880626961,
0,0,4,-4,1.03,,,,,2,0,2,0,1,50,106,11,,,,,,,,,,,,,,,,,,,,,,,1183.0324555999832,None,1183.0324555999832,None,1182.5321122999885,None,f,1.0393743000458926,1183.0324555999832,None,,,,,,,,,,,,,q,001,2021_Jul_10_1447,toilet,2021.1.3,99.91706880626961,
0,180,4,-4,0.97,,,,,2,0,2,0,1,51,107,23,,,,,,,,,,,,,,,,,,,,,,,1185.0838438000064,None,1185.0838438000064,None,1184.583506199997,None,j,1.067898100009188,1185.0838438000064,None,,,,,,,,,,,,,q,001,2021_Jul_10_1447,toilet,2021.1.3,99.91706880626961,
180,0,4,-4,1.06,,,,,2,0,2,0,1,52,108,54,,,,,,,,,,,,,,,,,,,,,,,1187.155331099988,None,1187.155331099988,None,1186.654911199992,None,f,1.1246956000104547,1187.155331099988,None,,,,,,,,,,,,,q,001,2021_Jul_10_1447,toilet,2021.1.3,99.91706880626961,
0,0,-4,4,0.94,,,,,2,0,2,0,1,53,109,1,,,,,,,,,,,,,,,,,,,,,,,1189.2966994000017,None,1189.2966994000017,None,1188.796362699999,None,f,0.8391135000274517,1189.2966994000017,None,,,,,,,,,,,,,q,001,2021_Jul_10_1447,toilet,2021.1.3,99.91706880626961,
180,0,4,-4,0.94,,,,,2,0,2,0,1,54,110,50,,,,,,,,,,,,,,,,,,,,,,,1191.1379535000306,None,1191.1379535000306,None,1190.6376113999868,None,j,0.5659187999553978,1191.1379535000306,None,,,,,,,,,,,,,q,001,2021_Jul_10_1447,toilet,2021.1.3,99.91706880626961,
0,180,4,-4,0.94,,,,,2,0,2,0,1,55,111,22,,,,,,,,,,,,,,,,,,,,,,,1192.7190334000043,None,1192.7190334000043,None,1192.2186857999768,None,j,0.8727592999930494,1192.7190334000043,None,,,,,,,,,,,,,q,001,2021_Jul_10_1447,toilet,2021.1.3,99.91706880626961,
,,,,,,,,,2,0,2,0,,,,,,,,,,,,,,,,,,,,,,,,,,,,,,,,,,,,,1193.6196435000165,None,space,157.30010379996384,1193.6196435000165,None,,,,,,,q,001,2021_Jul_10_1447,toilet,2021.1.3,99.91706880626961,
0,180,4,-4,0.97,,,,,3,0,3,0,0,0,0,23,,,,,,,,,,,,,,,,,1350.9363409000216,None,space,1.279303000017535,1350.9363409000216,None,1353.2278988999897,None,1353.2278988999897,None,1352.7275540999835,None,f,1.691820700012613,1353.2278988999897,None,,,,,,,,,,,,,q,001,2021_Jul_10_1447,toilet,2021.1.3,99.91706880626961,
180,180,4,-4,0.94,,,,,3,0,3,0,0,1,1,36,,,,,,,,,,,,,,,,,,,,,,,1355.9297271000105,None,1355.9297271000105,None,1355.429388199991,None,j,0.5421008000266738,1355.9297271000105,None,,,,,,,,,,,,,q,001,2021_Jul_10_1447,toilet,2021.1.3,99.91706880626961,
0,0,-4,4,0.97,,,,,3,0,3,0,0,2,2,2,,,,,,,,,,,,,,,,,,,,,,,1357.4908743000124,None,1357.4908743000124,None,1356.9905316000222,None,f,1.2528474999708124,1357.4908743000124,None,,,,,,,,,,,,,q,001,2021_Jul_10_1447,toilet,2021.1.3,99.91706880626961,
0,180,4,-4,1.03,,,,,3,0,3,0,0,3,3,25,,,,,,,,,,,,,,,,,,,,,,,1359.7523181000142,None,1359.7523181000142,None,1359.251984200033,None,f,0.6553335000062361,1359.7523181000142,None,,,,,,,,,,,,,q,001,2021_Jul_10_1447,toilet,2021.1.3,99.91706880626961,
180,180,4,-4,0.97,,,,,3,0,3,0,0,4,4,37,,,,,,,,,,,,,,,,,,,,,,,1361.4134512000019,None,1361.4134512000019,None,1360.9131068999995,None,j,0.5782971000298858,1361.4134512000019,None,,,,,,,,,,,,,q,001,2021_Jul_10_1447,toilet,2021.1.3,99.91706880626961,
180,180,-4,4,1.0,,,,,3,0,3,0,0,5,5,31,,,,,,,,,,,,,,,,,,,,,,,1363.004529900034,None,1363.004529900034,None,1362.5041895000031,None,j,0.7153305999818258,1363.004529900034,None,,,,,,,,,,,,,q,001,2021_Jul_10_1447,toilet,2021.1.3,99.91706880626961,
180,0,4,-4,1.15,,,,,3,0,3,0,0,6,6,55,,,,,,,,,,,,,,,,,,,,,,,1364.7357858000323,None,1364.7357858000323,None,1364.2353633000166,None,f,0.47212210000725463,1364.7357858000323,None,,,,,,,,,,,,,q,001,2021_Jul_10_1447,toilet,2021.1.3,99.91706880626961,
180,0,-4,4,1.06,,,,,3,0,3,0,0,7,7,47,,,,,,,,,,,,,,,,,,,,,,,1366.226717100013,None,1366.226717100013,None,1365.7263770999853,None,j,0.6290128999971785,1366.226717100013,None,,,,,,,,,,,,,q,001,2021_Jul_10_1447,toilet,2021.1.3,99.91706880626961,
0,0,4,-4,1.06,,,,,3,0,3,0,0,8,8,12,,,,,,,,,,,,,,,,,,,,,,,1367.8578243000084,None,1367.8578243000084,None,1367.3574799000053,None,f,0.4858853999758139,1367.8578243000084,None,,,,,,,,,,,,,q,001,2021_Jul_10_1447,toilet,2021.1.3,99.91706880626961,
180,180,4,-4,1.03,,,,,3,0,3,0,0,9,9,39,,,,,,,,,,,,,,,,,,,,,,,1369.3488359000185,None,1369.3488359000185,None,1368.8484949999838,None,f,1.2830352999735624,1369.3488359000185,None,,,,,,,,,,,,,q,001,2021_Jul_10_1447,toilet,2021.1.3,99.91706880626961,
0,0,-4,4,1.03,,,,,3,0,3,0,0,10,10,4,,,,,,,,,,,,,,,,,,,,,,,1371.650428700028,None,1371.650428700028,None,1371.1500531000202,None,j,0.6933637000038289,1371.650428700028,None,,,,,,,,,,,,,q,001,2021_Jul_10_1447,toilet,2021.1.3,99.91706880626961,
180,0,4,-4,0.85,,,,,3,0,3,0,0,11,11,49,,,,,,,,,,,,,,,,,,,,,,,1373.3615589999827,None,1373.3615589999827,None,1372.8612709000008,None,j,0.4701549999881536,1373.3615589999827,None,,,,,,,,,,,,,q,001,2021_Jul_10_1447,toilet,2021.1.3,99.91706880626961,
0,180,-4,4,1.0,,,,,3,0,3,0,0,12,12,17,,,,,,,,,,,,,,,,,,,,,,,1374.8325520000071,None,1374.8325520000071,None,1374.3322107000276,None,f,0.5512379999854602,1374.8325520000071,None,,,,,,,,,,,,,q,001,2021_Jul_10_1447,toilet,2021.1.3,99.91706880626961,
180,0,-4,4,0.97,,,,,3,0,3,0,0,13,13,44,,,,,,,,,,,,,,,,,,,,,,,1376.393615100009,None,1376.393615100009,None,1375.893268899992,None,f,0.47812609997345135,1376.393615100009,None,,,,,,,,,,,,,q,001,2021_Jul_10_1447,toilet,2021.1.3,99.91706880626961,
0,0,-4,4,0.85,,,,,3,0,3,0,0,14,14,0,,,,,,,,,,,,,,,,,,,,,,,1377.8846961000236,None,1377.8846961000236,None,1377.3842804000014,None,f,0.5069271000102162,1377.8846961000236,None,,,,,,,,,,,,,q,001,2021_Jul_10_1447,toilet,2021.1.3,99.91706880626961,
180,180,-4,4,1.06,,,,,3,0,3,0,0,15,15,33,,,,,,,,,,,,,,,,,,,,,,,1379.3957331000129,None,1379.3957331000129,None,1378.8953829000238,None,j,0.45217069995123893,1379.3957331000129,None,,,,,,,,,,,,,q,001,2021_Jul_10_1447,toilet,2021.1.3,99.91706880626961,
180,180,-4,4,0.97,,,,,3,0,3,0,0,16,16,30,,,,,,,,,,,,,,,,,,,,,,,1380.8566438999842,None,1380.8566438999842,None,1380.3663020000095,None,f,0.4950212999829091,1380.8566438999842,None,,,,,,,,,,,,,q,001,2021_Jul_10_1447,toilet,2021.1.3,99.91706880626961,
180,0,-4,4,1.03,,,,,3,0,3,0,0,17,17,46,,,,,,,,,,,,,,,,,,,,,,,1382.3576573000173,None,1382.3576573000173,None,1381.857315799978,None,j,1.1540867000003345,1382.3576573000173,None,,,,,,,,,,,,,q,001,2021_Jul_10_1447,toilet,2021.1.3,99.91706880626961,
0,0,4,-4,1.0,,,,,3,0,3,0,0,18,18,10,,,,,,,,,,,,,,,,,,,,,,,1384.5291548999958,None,1384.5291548999958,None,1384.0287882999983,None,f,0.8385306000127457,1384.5291548999958,None,,,,,,,,,,,,,q,001,2021_Jul_10_1447,toilet,2021.1.3,99.91706880626961,
0,0,4,-4,0.94,,,,,3,0,3,0,0,19,19,8,,,,,,,,,,,,,,,,,,,,,,,1386.3804554999806,None,1386.3804554999806,None,1385.8800461000064,None,j,0.7313281000242569,1386.3804554999806,None,,,,,,,,,,,,,q,001,2021_Jul_10_1447,toilet,2021.1.3,99.91706880626961,
180,180,-4,4,0.94,,,,,3,0,3,0,0,20,20,29,,,,,,,,,,,,,,,,,,,,,,,1388.121563200024,None,1388.121563200024,None,1387.6212280000327,None,f,0.7020583999692462,1388.121563200024,None,,,,,,,,,,,,,q,001,2021_Jul_10_1447,toilet,2021.1.3,99.91706880626961,
0,180,-4,4,1.15,,,,,3,0,3,0,0,21,21,20,,,,,,,,,,,,,,,,,,,,,,,1389.832723300031,None,1389.832723300031,None,1389.332388699986,None,j,0.5109414999606088,1389.832723300031,None,,,,,,,,,,,,,q,001,2021_Jul_10_1447,toilet,2021.1.3,99.91706880626961,
0,0,4,-4,0.97,,,,,3,0,3,0,0,22,22,9,,,,,,,,,,,,,,,,,,,,,,,1391.3437498999992,None,1391.3437498999992,None,1390.843411299982,None,f,1.1439731999998912,1391.3437498999992,None,,,,,,,,,,,,,q,001,2021_Jul_10_1447,toilet,2021.1.3,99.91706880626961,
180,180,4,-4,1.0,,,,,3,0,3,0,0,23,23,38,,,,,,,,,,,,,,,,,,,,,,,1393.4952851000126,None,1393.4952851000126,None,1393.0048742999788,None,f,0.7846457999548875,1393.4952851000126,None,,,,,,,,,,,,,q,001,2021_Jul_10_1447,toilet,2021.1.3,99.91706880626961,
180,0,4,-4,1.03,,,,,3,0,3,0,0,24,24,53,,,,,,,,,,,,,,,,,,,,,,,1395.2964300999884,None,1395.2964300999884,None,1394.796107799979,None,f,0.7592219000216573,1395.2964300999884,None,,,,,,,,,,,,,q,001,2021_Jul_10_1447,toilet,2021.1.3,99.91706880626961,
180,0,4,-4,0.97,,,,,3,0,3,0,0,25,25,51,,,,,,,,,,,,,,,,,,,,,,,1397.0576244000113,None,1397.0576244000113,None,1396.5573159999913,None,j,0.5180096999974921,1397.0576244000113,None,,,,,,,,,,,,,q,001,2021_Jul_10_1447,toilet,2021.1.3,99.91706880626961,
180,0,-4,4,1.15,,,,,3,0,3,0,0,26,26,48,,,,,,,,,,,,,,,,,,,,,,,1398.5786553000216,None,1398.5786553000216,None,1398.0783171000076,None,j,0.5171387000009418,1398.5786553000216,None,,,,,,,,,,,,,q,001,2021_Jul_10_1447,toilet,2021.1.3,99.91706880626961,
0,0,4,-4,0.85,,,,,3,0,3,0,0,27,27,7,,,,,,,,,,,,,,,,,,,,,,,1400.1097309000324,None,1400.1097309000324,None,1399.609356699977,None,j,0.554066699987743,1400.1097309000324,None,,,,,,,,,,,,,q,001,2021_Jul_10_1447,toilet,2021.1.3,99.91706880626961,
180,0,4,-4,1.0,,,,,3,0,3,0,0,28,28,52,,,,,,,,,,,,,,,,,,,,,,,1401.6807587000076,None,1401.6807587000076,None,1401.180500700022,None,f,0.5988872000016272,1401.6807587000076,None,,,,,,,,,,,,,q,001,2021_Jul_10_1447,toilet,2021.1.3,99.91706880626961,
180,180,-4,4,1.03,,,,,3,0,3,0,0,29,29,32,,,,,,,,,,,,,,,,,,,,,,,1403.2818458999973,None,1403.2818458999973,None,1402.7815110000083,None,f,0.8218916000332683,1403.2818458999973,None,,,,,,,,,,,,,q,001,2021_Jul_10_1447,toilet,2021.1.3,99.91706880626961,
180,0,4,-4,1.06,,,,,3,0,3,0,0,30,30,54,,,,,,,,,,,,,,,,,,,,,,,1405.1031223000027,None,1405.1031223000027,None,1404.602743800031,None,f,0.6007464000140317,1405.1031223000027,None,,,,,,,,,,,,,q,001,2021_Jul_10_1447,toilet,2021.1.3,99.91706880626961,
180,180,-4,4,1.15,,,,,3,0,3,0,0,31,31,34,,,,,,,,,,,,,,,,,,,,,,,1406.7141789000016,None,1406.7141789000016,None,1406.21383600001,None,j,0.47746329999063164,1406.7141789000016,None,,,,,,,,,,,,,q,001,2021_Jul_10_1447,toilet,2021.1.3,99.91706880626961,
0,0,-4,4,1.0,,,,,3,0,3,0,0,32,32,3,,,,,,,,,,,,,,,,,,,,,,,1408.1952530000126,None,1408.1952530000126,None,1407.694929099991,None,f,0.7724190000444651,1408.1952530000126,None,,,,,,,,,,,,,q,001,2021_Jul_10_1447,toilet,2021.1.3,99.91706880626961,
0,0,4,-4,1.03,,,,,3,0,3,0,0,33,33,11,,,,,,,,,,,,,,,,,,,,,,,1409.9763892000192,None,1409.9763892000192,None,1409.4761354000075,None,f,0.5913085999782197,1409.9763892000192,None,,,,,,,,,,,,,q,001,2021_Jul_10_1447,toilet,2021.1.3,99.91706880626961,
180,180,4,-4,0.85,,,,,3,0,3,0,0,34,34,35,,,,,,,,,,,,,,,,,,,,,,,1411.5674673999893,None,1411.5674673999893,None,1411.0671601999784,None,j,0.5201888000010513,1411.5674673999893,None,,,,,,,,,,,,,q,001,2021_Jul_10_1447,toilet,2021.1.3,99.91706880626961,
0,180,4,-4,0.85,,,,,3,0,3,0,0,35,35,21,,,,,,,,,,,,,,,,,,,,,,,1413.0885001000133,None,1413.0885001000133,None,1412.5881581000285,None,j,0.5033201000187546,1413.0885001000133,None,,,,,,,,,,,,,q,001,2021_Jul_10_1447,toilet,2021.1.3,99.91706880626961,
180,0,-4,4,0.85,,,,,3,0,3,0,0,36,36,42,,,,,,,,,,,,,,,,,,,,,,,1414.619519400003,None,1414.619519400003,None,1414.1192013000255,None,f,0.5562387999962084,1414.619519400003,None,,,,,,,,,,,,,q,001,2021_Jul_10_1447,toilet,2021.1.3,99.91706880626961,
0,180,-4,4,0.97,,,,,3,0,3,0,0,37,37,16,,,,,,,,,,,,,,,,,,,,,,,1416.1906829000218,None,1416.1906829000218,None,1415.6903022000333,None,f,1.1609877000446431,1416.1906829000218,None,,,,,,,,,,,,,q,001,2021_Jul_10_1447,toilet,2021.1.3,99.91706880626961,
180,0,-4,4,1.0,,,,,3,0,3,0,0,38,38,45,,,,,,,,,,,,,,,,,,,,,,,1418.352070300025,None,1418.352070300025,None,1417.851729899994,None,f,1.5596466999850236,1418.352070300025,None,,,,,,,,,,,,,q,001,2021_Jul_10_1447,toilet,2021.1.3,99.91706880626961,
180,0,-4,4,0.94,,,,,3,0,3,0,0,39,39,43,,,,,,,,,,,,,,,,,,,,,,,1420.9238167000003,None,1420.9238167000003,None,1420.4234754000208,None,f,0.6519222999922931,1420.9238167000003,None,,,,,,,,,,,,,q,001,2021_Jul_10_1447,toilet,2021.1.3,99.91706880626961,
0,180,4,-4,1.0,,,,,3,0,3,0,0,40,40,24,,,,,,,,,,,,,,,,,,,,,,,1422.5950250999886,None,1422.5950250999886,None,1422.0946447000024,None,j,0.5806055999710225,1422.5950250999886,None,,,,,,,,,,,,,q,001,2021_Jul_10_1447,toilet,2021.1.3,99.91706880626961,
180,180,4,-4,1.06,,,,,3,0,3,0,0,41,41,40,,,,,,,,,,,,,,,,,,,,,,,1424.17606040003,None,1424.17606040003,None,1423.675767000008,None,f,0.6476884000003338,1424.17606040003,None,,,,,,,,,,,,,q,001,2021_Jul_10_1447,toilet,2021.1.3,99.91706880626961,
0,180,-4,4,1.03,,,,,3,0,3,0,0,42,42,18,,,,,,,,,,,,,,,,,,,,,,,1425.8271350000286,None,1425.8271350000286,None,1425.3267959000077,None,j,0.5965017999988049,1425.8271350000286,None,,,,,,,,,,,,,q,001,2021_Jul_10_1447,toilet,2021.1.3,99.91706880626961,
180,180,-4,4,0.85,,,,,3,0,3,0,0,43,43,28,,,,,,,,,,,,,,,,,,,,,,,1427.428218199988,None,1427.428218199988,None,1426.9278813999845,None,f,0.6274494000244886,1427.428218199988,None,,,,,,,,,,,,,q,001,2021_Jul_10_1447,toilet,2021.1.3,99.91706880626961,
0,0,-4,4,1.06,,,,,3,0,3,0,0,44,44,5,,,,,,,,,,,,,,,,,,,,,,,1429.0593310000258,None,1429.0593310000258,None,1428.5589891999844,None,j,0.7244982999982312,1429.0593310000258,None,,,,,,,,,,,,,q,001,2021_Jul_10_1447,toilet,2021.1.3,99.91706880626961,
0,0,-4,4,0.94,,,,,3,0,3,0,0,45,45,1,,,,,,,,,,,,,,,,,,,,,,,1430.8006013000268,None,1430.8006013000268,None,1430.3001700000023,None,f,0.5191373000270687,1430.8006013000268,None,,,,,,,,,,,,,q,001,2021_Jul_10_1447,toilet,2021.1.3,99.91706880626961,
0,0,-4,4,1.15,,,,,3,0,3,0,0,46,46,6,,,,,,,,,,,,,,,,,,,,,,,1432.3315781999845,None,1432.3315781999845,None,1431.8312046999927,None,j,0.5880690000485629,1432.3315781999845,None,,,,,,,,,,,,,q,001,2021_Jul_10_1447,toilet,2021.1.3,99.91706880626961,
180,0,4,-4,0.94,,,,,3,0,3,0,0,47,47,50,,,,,,,,,,,,,,,,,,,,,,,1433.9226255000103,None,1433.9226255000103,None,1433.4222849999787,None,j,1.9571870000218041,1433.9226255000103,None,,,,,,,,,,,,,q,001,2021_Jul_10_1447,toilet,2021.1.3,99.91706880626961,
0,180,4,-4,0.94,,,,,3,0,3,0,0,48,48,22,,,,,,,,,,,,,,,,,,,,,,,1436.894643799984,None,1436.894643799984,None,1436.3943059000303,None,f,2.0090919999638572,1436.894643799984,None,,,,,,,,,,,,,q,001,2021_Jul_10_1447,toilet,2021.1.3,99.91706880626961,
